Time, Temperature, Mag X, Mag Y, Mag Z, Gyro X, Gyro Y, Gyro Z, Acc X, Acc Y, Acc Z, Lin Acc X, Lin Acc Y, Lin Acc Z, Gravity X, Gravity Y, Gravity Z, Euler X, Euler Y, Euler Z
1.545,30,-78.375,-14.250,18.063,-31.563,3.625,8.625,0.180,-2.030,-10.120,0.200,0.800,-19.510,-0.020,-2.830,9.380,356.625,-0.188,17.063
11.697,30,-140.188,-32.188,64.000,-3.313,-1.625,4.000,-1.480,-1.720,-9.050,0.200,0.110,0.420,-1.680,-2.070,-9.430,180.937,-9.875,167.562
11.73,30,-139.000,-31.875,65.062,-5.813,6.313,4.438,-1.600,-1.820,-9.650,0.080,0.050,-0.180,-1.660,-2.030,-9.440,181.062,-9.750,167.812
11.773,30,-139.000,-31.875,65.062,-15.688,3.000,17.000,-1.610,-1.400,-10.230,0.040,0.480,-0.750,-1.660,-1.890,-9.470,181.625,-9.750,168.687
11.794,30,-139.750,-32.188,63.563,-3.000,-10.688,6.688,-1.350,-2.030,-9.290,0.330,-0.160,0.180,-1.680,-1.870,-9.470,181.750,-9.875,168.813
11.818,30,-139.750,-32.188,63.563,2.250,-13.125,12.375,-1.320,-1.460,-8.890,0.420,0.400,0.560,-1.740,-1.870,-9.460,182.062,-10.313,168.813
11.839,30,-138.250,-32.563,64.875,1.250,-2.000,6.500,-1.520,-1.730,-9.430,0.240,0.130,0.020,-1.760,-1.870,-9.460,182.125,-10.313,168.813
11.884,30,-138.250,-32.563,64.875,3.625,-0.938,-2.563,-1.620,-2.030,-9.110,0.130,-0.130,0.340,-1.760,-1.890,-9.450,182.125,-10.375,168.687
11.907,30,-138.250,-32.563,64.875,2.313,3.375,-0.875,-1.590,-1.830,-9.430,0.160,0.060,0.020,-1.750,-1.900,-9.450,182.125,-10.250,168.625
11.931,30,-138.250,-32.188,64.563,2.063,2.250,-1.813,-1.530,-2.060,-9.220,0.240,0.060,0.240,-1.740,-1.910,-9.450,182.062,-10.188,168.562
11.982,30,-139.375,-32.188,65.375,2.313,-0.750,-3.188,-1.630,-2.080,-9.520,0.100,-0.160,-0.070,-1.730,-1.920,-9.450,182.000,-10.188,168.500
12.004,30,-139.375,-32.188,65.375,1.750,-1.688,-0.500,-1.530,-1.700,-9.320,0.210,0.210,0.130,-1.740,-1.920,-9.450,182.000,-10.250,168.437
12.029,30,-138.687,-31.875,64.688,1.500,-1.375,-1.625,-1.600,-2.130,-9.560,0.140,-0.200,-0.100,-1.740,-1.930,-9.450,182.000,-10.250,168.375
12.05,30,-138.687,-31.875,64.688,-0.188,-4.125,2.688,-1.680,-1.850,-9.090,0.070,0.070,0.350,-1.760,-1.930,-9.450,182.000,-10.313,168.375
12.096,30,-137.875,-32.563,66.250,-4.500,-3.313,6.313,-1.670,-1.830,-9.140,0.110,0.070,0.300,-1.780,-1.910,-9.450,182.125,-10.438,168.500
12.119,30,-137.875,-32.563,66.250,-2.313,-1.375,1.750,-1.490,-1.610,-9.500,0.290,0.280,-0.040,-1.790,-1.900,-9.450,182.188,-10.500,168.625
12.14,30,-138.687,-32.563,64.688,0.063,-0.063,1.438,-1.520,-1.630,-9.500,0.270,0.260,-0.040,-1.790,-1.890,-9.450,182.188,-10.500,168.625
12.164,30,-138.687,-32.563,64.688,-0.563,4.750,2.063,-1.470,-1.770,-9.290,0.300,0.120,0.160,-1.780,-1.890,-9.450,182.250,-10.438,168.625
12.207,30,-138.687,-31.063,66.250,1.938,-8.813,1.313,-1.690,-2.190,-9.460,0.090,-0.290,-0.010,-1.780,-1.890,-9.450,182.312,-10.562,168.625
12.231,30,-139.000,-32.188,65.062,-0.313,-1.750,3.813,-1.310,-1.740,-8.630,0.490,0.140,0.810,-1.790,-1.890,-9.450,182.375,-10.562,168.625
12.252,30,-139.000,-32.188,65.062,-4.250,3.438,6.438,-1.770,-2.420,-8.660,0.020,-0.560,0.790,-1.790,-1.860,-9.450,182.562,-10.500,168.813
12.298,30,-137.563,-33.000,64.688,-4.750,11.187,-0.625,-1.690,-1.260,-10.260,0.010,0.490,-0.760,-1.700,-1.760,-9.490,182.937,-10.000,169.375
12.322,30,-137.563,-33.000,64.688,0.938,-0.688,-0.125,-1.720,-2.190,-9.480,-0.020,-0.420,0.000,-1.710,-1.770,-9.490,183.000,-10.000,169.375
12.343,30,-138.250,-33.375,64.750,-1.125,-3.000,6.375,-1.690,-1.570,-8.950,0.020,0.180,0.530,-1.710,-1.760,-9.490,183.125,-10.063,169.437
12.375,30,-138.250,-33.375,64.750,-3.375,4.313,-6.063,-1.410,-1.750,-9.170,0.280,0.000,0.320,-1.690,-1.750,-9.490,183.000,-9.938,169.500
12.418,30,-138.250,-32.563,65.563,3.438,-1.375,-3.938,-1.520,-1.910,-9.630,0.150,-0.150,-0.130,-1.670,-1.760,-9.490,182.813,-9.813,169.437
12.44,30,-139.000,-33.000,64.875,3.750,-4.688,-2.063,-1.580,-1.760,-9.040,0.100,0.010,0.450,-1.690,-1.780,-9.490,182.750,-9.938,169.375
12.464,30,-139.000,-33.000,64.875,1.125,-0.313,-4.250,-1.640,-1.960,-9.310,0.050,-0.170,0.170,-1.690,-1.780,-9.490,182.625,-9.938,169.313
12.487,30,-137.875,-33.000,65.250,0.875,-0.313,-1.750,-1.560,-1.710,-9.820,0.120,0.070,-0.330,-1.690,-1.790,-9.490,182.562,-9.938,169.250
12.531,30,-138.687,-32.563,65.687,-0.125,-4.375,2.375,-1.570,-1.920,-9.260,0.140,-0.130,0.220,-1.710,-1.790,-9.480,182.625,-10.063,169.313
12.553,30,-138.687,-32.563,65.687,-0.625,-2.313,2.938,-1.680,-1.650,-9.120,0.040,0.120,0.350,-1.720,-1.780,-9.480,182.687,-10.125,169.313
12.58,30,-139.000,-32.563,66.500,-0.813,1.188,-0.875,-1.600,-1.800,-9.380,0.120,-0.010,0.100,-1.720,-1.780,-9.480,182.687,-10.063,169.313
12.604,30,-139.000,-32.563,66.500,-0.188,1.688,1.125,-1.540,-1.740,-9.410,0.170,0.030,0.060,-1.710,-1.780,-9.480,182.687,-10.063,169.313
12.65,30,-138.687,-33.688,64.500,0.375,3.563,3.188,-1.460,-1.730,-9.400,0.230,0.040,0.080,-1.700,-1.770,-9.490,182.875,-9.938,169.375
12.674,30,-138.687,-33.688,64.500,-0.750,3.750,4.063,-1.430,-1.740,-9.320,0.250,0.030,0.170,-1.680,-1.770,-9.490,182.937,-9.875,169.437
12.695,30,-138.687,-33.375,64.500,-2.063,2.938,3.250,-1.610,-1.800,-9.490,0.060,-0.030,0.000,-1.670,-1.760,-9.490,183.000,-9.813,169.437
12.739,30,-138.250,-32.563,66.500,-0.563,0.125,1.813,-1.330,-1.520,-9.520,0.330,0.230,-0.020,-1.670,-1.750,-9.500,183.000,-9.813,169.500
12.763,30,-138.250,-32.563,66.500,1.000,-1.250,-0.813,-1.580,-1.780,-9.480,0.000,-0.090,0.050,-1.670,-1.760,-9.500,183.000,-9.813,169.437
12.787,30,-139.000,-32.563,63.688,-0.500,-2.313,1.688,-1.530,-1.700,-9.270,0.140,0.050,0.220,-1.680,-1.750,-9.490,183.062,-9.875,169.500
12.81,30,-139.000,-32.563,63.688,-3.000,-1.313,1.125,-1.530,-1.680,-9.280,0.150,0.060,0.220,-1.680,-1.740,-9.500,183.062,-9.875,169.562
12.855,30,-138.250,-33.688,64.875,0.375,-1.750,0.688,-1.620,-1.660,-9.350,0.060,0.080,0.140,-1.690,-1.740,-9.500,183.125,-9.875,169.562
12.88,30,-138.687,-33.688,64.875,0.750,-1.375,1.000,-1.670,-1.840,-9.370,0.010,-0.100,0.120,-1.690,-1.740,-9.500,183.125,-9.938,169.562
12.901,30,-138.687,-33.688,64.875,-0.125,0.250,2.188,-1.490,-1.790,-9.330,0.200,-0.050,0.160,-1.690,-1.740,-9.490,183.187,-9.938,169.562
12.924,30,-138.687,-33.688,64.875,0.063,0.063,2.500,-1.400,-1.580,-9.550,0.290,0.150,-0.050,-1.690,-1.740,-9.500,183.250,-9.938,169.562
12.965,30,-138.250,-32.563,65.687,-0.750,-5.250,8.125,-1.730,-1.820,-9.060,-0.010,-0.090,0.430,-1.720,-1.730,-9.490,183.500,-10.125,169.625
12.989,30,-139.375,-33.375,65.687,-4.688,1.063,2.313,-1.540,-1.630,-9.290,0.180,0.080,0.200,-1.730,-1.720,-9.490,183.562,-10.125,169.688
13.013,30,-139.375,-33.375,65.687,-2.938,4.313,-0.688,-1.390,-1.940,-9.350,0.320,-0.240,0.150,-1.710,-1.700,-9.500,183.562,-10.000,169.812
13.037,30,-137.563,-32.563,65.375,-3.000,-0.313,1.625,-1.240,-1.630,-9.450,0.420,0.240,-0.080,-1.710,-1.690,-9.500,183.562,-10.063,169.875
13.08,30,-137.563,-32.563,65.375,1.688,-1.375,-0.813,-1.630,-1.600,-9.350,0.090,0.090,0.140,-1.720,-1.690,-9.500,183.562,-10.063,169.875
13.101,30,-137.875,-33.000,66.188,1.188,-0.313,-1.688,-1.550,-1.610,-9.260,0.160,0.080,0.240,-1.720,-1.700,-9.500,183.500,-10.063,169.812
13.125,30,-137.875,-33.000,66.188,0.438,1.813,-2.438,-1.400,-1.580,-9.630,0.310,0.120,-0.130,-1.710,-1.700,-9.500,183.437,-10.063,169.812
13.166,30,-138.250,-33.000,66.188,1.938,-2.750,1.000,-1.640,-1.760,-9.180,0.080,-0.030,0.310,-1.720,-1.720,-9.490,183.437,-10.125,169.688
13.19,30,-137.875,-33.375,65.000,1.063,0.563,-0.750,-1.640,-1.800,-9.310,0.080,-0.070,0.180,-1.720,-1.720,-9.490,183.375,-10.125,169.625
13.215,30,-137.875,-33.375,65.000,0.500,0.875,-1.000,-1.490,-1.580,-9.510,0.250,0.140,-0.100,-1.720,-1.730,-9.490,183.375,-10.063,169.625
13.245,30,-138.250,-32.188,63.750,-0.750,-0.625,-0.250,-1.520,-1.760,-9.170,0.150,0.140,0.230,-1.710,-1.720,-9.490,183.375,-10.063,169.688
13.289,30,-138.250,-33.375,65.000,-3.188,3.813,0.375,-1.530,-1.610,-9.560,0.160,0.000,-0.080,-1.690,-1.700,-9.500,183.375,-9.938,169.750
13.31,30,-138.250,-33.375,65.000,-3.438,0.188,3.438,-1.550,-1.650,-9.540,0.130,0.040,-0.030,-1.690,-1.690,-9.500,183.437,-9.938,169.875
13.336,30,-137.875,-33.375,65.375,-2.813,-3.500,4.313,-1.570,-1.540,-9.090,0.130,0.140,0.410,-1.700,-1.680,-9.500,183.500,-10.000,170.000
13.357,30,-137.875,-33.375,65.375,-7.063,1.500,2.313,-1.410,-1.410,-9.520,0.280,0.240,-0.010,-1.700,-1.650,-9.510,183.562,-10.000,170.125
13.402,30,-137.875,-33.375,65.375,-3.500,0.750,2.500,-1.430,-1.510,-9.360,0.260,0.130,0.150,-1.690,-1.640,-9.510,183.562,-9.875,170.187
13.426,30,-137.875,-33.375,65.375,-0.625,-2.750,1.313,-1.500,-1.580,-9.000,0.190,0.050,0.500,-1.700,-1.640,-9.510,183.562,-9.938,170.187
13.447,30,-138.687,-33.000,66.188,-3.625,2.250,-0.063,-1.610,-1.600,-9.560,0.130,0.030,-0.310,-1.690,-1.620,-9.520,183.562,-9.938,170.313
13.492,30,-138.250,-33.375,65.375,-1.688,1.500,2.875,-1.490,-1.620,-9.390,0.190,0.000,0.120,-1.690,-1.610,-9.520,183.625,-9.938,170.313
13.517,30,-138.250,-33.375,65.375,-3.313,2.625,5.000,-1.500,-1.520,-9.330,0.190,0.120,0.260,-1.680,-1.600,-9.520,183.750,-9.875,170.437
13.541,30,-137.875,-33.250,65.375,-2.000,0.813,3.500,-1.470,-1.470,-9.270,0.140,-0.010,0.070,-1.680,-1.590,-9.520,183.813,-9.875,170.500
13.562,30,-137.875,-33.250,65.375,-1.750,0.000,1.938,-1.450,-1.490,-9.450,0.220,0.090,0.070,-1.670,-1.580,-9.530,183.875,-9.813,170.500
13.607,30,-138.250,-33.250,65.687,0.625,-1.000,-0.375,-1.580,-1.750,-9.180,0.080,-0.160,0.350,-1.670,-1.580,-9.530,183.875,-9.813,170.562
13.63,30,-138.250,-33.250,65.687,-0.875,2.000,-0.625,-1.540,-1.570,-9.630,0.070,-0.190,-0.100,-1.670,-1.580,-9.530,183.875,-9.750,170.562
13.651,30,-137.875,-33.250,65.375,0.813,-4.000,0.750,-1.480,-1.510,-9.140,0.190,0.070,0.380,-1.670,-1.580,-9.530,183.813,-9.813,170.562
13.679,30,-137.875,-33.250,65.375,-0.125,-1.500,1.250,-1.470,-1.520,-9.290,0.210,0.060,0.220,-1.680,-1.580,-9.520,183.875,-9.875,170.562
13.72,30,-137.875,-33.250,66.188,0.438,-1.500,0.313,-1.500,-1.490,-9.350,0.190,0.080,0.170,-1.690,-1.580,-9.520,183.875,-9.938,170.562
13.744,30,-138.250,-31.750,65.687,0.688,-2.438,-1.313,-1.570,-1.640,-9.390,0.120,-0.060,0.130,-1.700,-1.580,-9.520,183.875,-9.938,170.500
13.766,30,-138.250,-31.750,65.687,0.438,-3.000,-1.500,-1.570,-1.570,-9.200,0.130,0.010,0.320,-1.700,-1.580,-9.520,183.813,-10.000,170.500
13.79,30,-139.000,-31.375,64.563,-2.563,-0.250,-1.375,-1.550,-1.570,-9.360,0.160,0.000,0.160,-1.700,-1.570,-9.520,183.813,-10.000,170.562
13.831,30,-139.000,-31.375,64.563,-0.875,-2.375,-2.125,-1.550,-1.580,-9.360,0.250,0.060,0.140,-1.710,-1.560,-9.520,183.750,-10.063,170.625
13.852,30,-137.875,-33.250,66.188,-1.688,-1.750,0.063,-1.540,-1.580,-9.260,0.170,-0.020,0.260,-1.710,-1.560,-9.520,183.750,-10.063,170.625
13.877,30,-137.875,-33.250,66.188,-1.313,1.438,0.000,-1.470,-1.470,-9.750,0.230,0.080,-0.220,-1.710,-1.550,-9.520,183.687,-10.000,170.687
13.919,30,-137.875,-32.875,65.750,1.750,-1.625,-1.625,-1.590,-1.570,-9.200,0.110,0.040,0.320,-1.720,-1.570,-9.520,183.625,-10.063,170.625
13.943,30,-137.875,-32.875,65.000,-0.563,2.375,-2.188,-1.630,-1.590,-9.790,0.080,-0.020,-0.270,-1.710,-1.570,-9.520,183.625,-10.063,170.625
13.969,30,-137.875,-32.875,65.000,0.688,-2.938,-1.125,-1.540,-1.340,-9.250,0.250,0.260,0.300,-1.720,-1.570,-9.520,183.562,-10.125,170.562
13.993,30,-138.687,-32.875,64.188,1.875,-2.813,-2.063,-1.640,-1.780,-9.270,0.080,-0.200,0.250,-1.730,-1.580,-9.520,183.500,-10.125,170.500
14.035,30,-138.687,-32.875,64.188,0.688,-0.875,0.688,-1.490,-1.480,-9.280,0.230,0.110,0.230,-1.730,-1.590,-9.510,183.437,-10.125,170.437
14.06,30,-138.250,-33.563,66.875,-0.563,0.438,-0.125,-1.530,-1.500,-9.460,0.130,0.030,0.030,-1.730,-1.590,-9.510,183.437,-10.125,170.437
14.084,30,-138.250,-33.563,66.875,-0.625,-0.188,-0.250,-1.600,-1.540,-9.370,0.120,0.040,0.140,-1.730,-1.590,-9.520,183.437,-10.125,170.437
14.114,30,-137.563,-31.375,64.188,1.125,0.313,-1.500,-1.650,-1.580,-9.410,0.070,0.010,0.100,-1.720,-1.590,-9.520,183.375,-10.125,170.437
14.16,30,-137.875,-33.375,66.563,-0.750,-0.938,1.375,-1.550,-1.660,-9.310,0.170,-0.040,0.300,-1.730,-1.590,-9.510,183.375,-10.125,170.437
14.184,30,-137.875,-33.375,66.563,-1.750,1.000,1.188,-1.520,-1.460,-9.270,0.190,0.160,-0.030,-1.720,-1.590,-9.520,183.375,-10.125,170.500
14.205,30,-137.187,-32.563,65.750,0.875,-0.750,-1.125,-1.600,-1.580,-9.590,0.110,0.010,-0.070,-1.720,-1.590,-9.520,183.375,-10.125,170.437
14.251,30,-138.250,-33.688,66.563,0.625,-0.688,-0.438,-1.580,-1.640,-9.560,0.120,-0.050,0.020,-1.720,-1.590,-9.520,183.375,-10.125,170.437
14.275,30,-138.250,-33.688,66.563,-0.438,-1.000,0.250,-1.560,-1.560,-9.170,0.160,0.020,0.340,-1.730,-1.590,-9.510,183.375,-10.125,170.437
14.298,30,-138.250,-31.500,64.563,-1.938,2.000,0.063,-1.600,-1.600,-9.390,0.110,-0.010,0.130,-1.720,-1.590,-9.520,183.375,-10.063,170.500
14.322,30,-138.250,-31.500,64.563,-0.375,-0.188,-0.063,-1.600,-1.490,-9.580,0.200,0.080,0.060,-1.720,-1.580,-9.520,183.375,-10.125,170.500
14.366,30,-137.875,-31.875,65.375,1.375,-0.813,-1.313,-1.550,-1.590,-9.460,0.170,0.000,0.050,-1.730,-1.590,-9.510,183.375,-10.125,170.437
14.392,30,-138.250,-33.375,65.750,0.938,-1.375,-0.563,-1.570,-1.620,-9.290,0.150,-0.020,0.220,-1.730,-1.600,-9.510,183.375,-10.125,170.375
14.413,30,-138.250,-33.375,65.750,1.125,-0.500,-1.063,-1.570,-1.580,-9.320,0.120,0.000,0.120,-1.730,-1.600,-9.510,183.313,-10.125,170.375
14.436,30,-138.250,-33.375,65.750,0.125,-0.250,-0.250,-1.600,-1.560,-9.430,0.120,0.040,0.070,-1.730,-1.600,-9.510,183.313,-10.125,170.375
14.477,30,-138.687,-33.375,65.375,0.688,0.188,-0.750,-1.640,-1.630,-9.370,0.080,-0.020,0.130,-1.730,-1.610,-9.510,183.313,-10.188,170.375
14.499,30,-138.250,-33.375,66.188,1.938,-1.813,-1.688,-1.570,-1.540,-9.500,0.160,0.070,0.000,-1.730,-1.610,-9.510,183.313,-10.188,170.313
14.523,30,-138.250,-33.375,66.188,3.500,-2.500,-1.500,-1.540,-1.860,-9.250,0.190,0.190,-0.080,-1.740,-1.630,-9.510,183.250,-10.188,170.187
14.555,30,-137.563,-33.000,65.375,1.000,1.125,-0.813,-1.540,-1.590,-9.420,0.190,0.050,0.070,-1.740,-1.640,-9.500,183.250,-10.188,170.125
14.6,30,-138.687,-32.563,65.687,-0.375,0.063,-0.375,-1.560,-1.550,-9.450,0.170,0.090,0.050,-1.740,-1.650,-9.500,183.250,-10.188,170.125
14.624,30,-138.687,-32.563,65.687,-0.188,0.438,-0.125,-1.560,-1.550,-9.480,0.170,0.090,0.020,-1.730,-1.650,-9.500,183.250,-10.188,170.125
14.648,30,-138.250,-33.375,65.000,1.250,-0.125,0.125,-1.550,-1.670,-9.400,0.180,-0.010,0.100,-1.730,-1.650,-9.500,183.250,-10.188,170.125
14.693,30,-137.187,-33.688,65.375,0.500,-1.938,0.125,-1.560,-1.670,-9.410,0.170,-0.010,0.080,-1.730,-1.660,-9.500,183.250,-10.188,170.062
14.714,30,-137.187,-33.688,65.375,-0.500,-1.375,1.313,-1.600,-1.620,-9.460,0.120,0.090,0.040,-1.740,-1.660,-9.500,183.313,-10.250,170.062
14.738,30,-137.187,-33.688,65.375,-0.063,-1.938,1.500,-1.540,-1.610,-9.330,0.200,0.040,0.170,-1.750,-1.650,-9.500,183.313,-10.250,170.062
14.759,30,-138.250,-33.688,65.000,-0.250,-1.438,1.063,-1.700,-1.730,-9.220,0.050,-0.070,0.270,-1.760,-1.650,-9.500,183.313,-10.313,170.062
14.803,30,-137.563,-33.000,64.563,-0.438,-0.188,1.250,-1.630,-1.810,-9.520,0.120,-0.160,-0.010,-1.760,-1.650,-9.500,183.375,-10.313,170.062
14.827,30,-137.563,-33.000,64.563,-0.250,-0.688,1.125,-1.530,-1.610,-9.440,0.230,0.030,0.060,-1.760,-1.650,-9.500,183.375,-10.313,170.125
14.85,30,-138.250,-33.375,65.000,-0.188,-1.813,2.563,-1.660,-1.570,-9.230,0.100,0.070,0.270,-1.760,-1.650,-9.500,183.437,-10.375,170.125
14.873,30,-138.250,-33.375,65.000,-0.625,1.063,2.063,-1.580,-1.500,-9.290,0.180,0.130,0.200,-1.760,-1.640,-9.500,183.500,-10.313,170.125
14.916,30,-137.563,-32.563,66.188,-1.438,-0.813,1.438,-1.610,-1.630,-9.380,0.150,0.000,0.120,-1.760,-1.630,-9.500,183.562,-10.313,170.187
14.941,30,-136.750,-32.563,65.750,-0.688,1.063,0.688,-1.660,-1.480,-9.420,0.090,0.140,0.080,-1.760,-1.630,-9.500,183.562,-10.313,170.250
14.965,30,-136.750,-32.563,65.750,0.938,-0.250,-2.000,-1.590,-1.700,-9.340,0.150,0.090,0.070,-1.750,-1.630,-9.500,183.500,-10.313,170.187
15.013,30,-137.563,-33.688,65.000,0.250,1.250,-0.063,-1.660,-1.780,-9.410,0.090,-0.140,0.090,-1.740,-1.630,-9.510,183.500,-10.250,170.250
15.037,30,-137.563,-33.688,65.000,-1.438,3.688,1.625,-1.660,-1.540,-9.520,0.080,0.080,0.000,-1.730,-1.620,-9.510,183.562,-10.188,170.250
15.058,30,-139.000,-32.188,64.188,-0.375,0.063,0.688,-1.600,-1.620,-9.420,0.130,0.000,0.080,-1.730,-1.620,-9.510,183.562,-10.188,170.250
15.082,30,-139.000,-32.188,64.188,-0.750,-1.125,1.938,-1.600,-1.620,-9.270,0.130,0.000,0.240,-1.740,-1.620,-9.510,183.625,-10.188,170.250
15.124,30,-138.250,-31.500,66.188,-0.250,1.688,0.875,-1.580,-1.650,-9.340,0.150,-0.030,0.170,-1.730,-1.610,-9.510,183.687,-10.125,170.313
15.148,30,-137.563,-33.688,65.375,-0.688,1.000,2.188,-1.550,-1.570,-9.380,0.170,0.040,0.130,-1.730,-1.610,-9.510,183.750,-10.125,170.313
15.169,30,-137.563,-33.688,65.375,-0.438,-1.250,2.063,-1.610,-1.500,-9.420,0.110,0.110,0.080,-1.730,-1.610,-9.510,183.750,-10.188,170.313
15.193,30,-138.250,-32.563,65.687,0.563,-1.438,0.500,-1.590,-1.570,-9.290,0.140,0.040,0.220,-1.730,-1.610,-9.510,183.750,-10.188,170.313
15.234,30,-138.250,-32.563,65.687,-1.563,3.938,2.688,-1.540,-1.320,-9.570,0.180,0.280,-0.050,-1.720,-1.610,-9.510,183.813,-10.125,170.375
15.255,30,-137.875,-33.000,64.563,0.500,0.875,-1.063,-1.560,-1.700,-9.200,0.150,-0.090,0.310,-1.710,-1.600,-9.510,183.813,-10.063,170.375
15.278,30,-137.875,-33.000,64.563,0.250,1.563,-0.625,-1.610,-1.650,-9.250,0.090,-0.040,0.260,-1.710,-1.610,-9.520,183.813,-10.000,170.375
15.302,30,-139.000,-33.563,66.188,0.625,2.000,-2.625,-1.620,-1.640,-9.420,0.080,-0.020,0.090,-1.700,-1.610,-9.520,183.750,-10.000,170.375
15.344,30,-138.687,-33.250,65.000,-1.000,0.563,-0.500,-1.510,-1.540,-9.360,0.170,0.070,0.150,-1.690,-1.610,-9.520,183.687,-9.938,170.313
15.368,30,-138.687,-33.250,65.000,-0.125,-0.063,-1.250,-1.540,-1.570,-9.470,0.140,0.040,0.040,-1.690,-1.610,-9.520,183.625,-9.938,170.313
15.392,30,-138.687,-33.250,65.000,0.438,-1.688,-0.688,-1.510,-1.520,-9.340,0.180,0.090,0.170,-1.690,-1.610,-9.520,183.625,-9.938,170.313
15.444,30,-138.250,-33.250,65.000,-0.125,0.438,-0.938,-1.540,-1.610,-9.510,0.140,0.000,0.000,-1.690,-1.610,-9.520,183.625,-9.938,170.313
15.469,30,-138.250,-33.250,65.000,-0.313,-0.438,0.063,-1.560,-1.590,-9.410,0.120,0.020,0.110,-1.690,-1.610,-9.520,183.625,-9.938,170.313
15.494,30,-138.250,-33.250,65.000,-3.063,-1.000,2.188,-1.720,-1.620,-9.360,-0.020,-0.010,0.160,-1.690,-1.610,-9.520,183.625,-9.938,170.375
15.515,30,-137.563,-32.500,65.375,-8.813,-1.313,2.000,-1.480,-1.460,-9.310,0.210,0.110,0.210,-1.700,-1.580,-9.520,183.687,-9.938,170.562
15.558,30,-137.875,-32.875,66.563,-6.063,1.500,0.313,-1.470,-1.380,-9.430,0.150,-0.050,0.310,-1.680,-1.520,-9.530,183.625,-9.875,170.875
15.582,30,-137.875,-32.875,66.563,-2.375,2.750,-1.125,-1.590,-1.620,-9.470,0.080,-0.100,0.060,-1.680,-1.520,-9.540,183.625,-9.813,170.875
15.605,30,-137.875,-32.875,65.375,-3.000,1.625,0.000,-1.560,-1.460,-9.440,0.100,0.050,0.090,-1.670,-1.510,-9.540,183.625,-9.813,170.937
15.628,30,-137.875,-32.875,65.375,-2.000,1.125,-1.063,-1.470,-1.550,-9.720,0.100,-0.070,0.130,-1.660,-1.500,-9.540,183.562,-9.750,171.000
15.672,30,-137.875,-33.563,65.250,-0.188,-1.813,-0.188,-1.610,-1.530,-9.180,0.060,-0.030,0.350,-1.670,-1.490,-9.540,183.562,-9.813,171.062
15.698,30,-138.250,-33.563,64.063,-1.438,1.063,-0.500,-1.510,-1.420,-9.380,0.150,0.070,0.160,-1.670,-1.490,-9.540,183.562,-9.750,171.062
15.719,30,-138.250,-33.563,64.063,-1.313,2.063,-1.500,-1.560,-1.440,-9.660,0.090,-0.090,0.190,-1.660,-1.490,-9.540,183.562,-9.750,171.062
15.762,30,-138.687,-33.563,66.188,-0.375,1.375,-3.125,-1.550,-1.520,-9.610,0.100,-0.030,-0.060,-1.650,-1.490,-9.540,183.437,-9.688,171.062
15.786,30,-138.687,-33.563,66.188,-0.563,-0.750,-2.188,-1.480,-1.510,-9.240,0.160,-0.020,0.300,-1.650,-1.490,-9.540,183.375,-9.688,171.062
15.809,30,-137.563,-32.875,66.188,-0.875,1.125,-1.625,-1.570,-1.590,-9.330,0.100,-0.140,0.210,-1.640,-1.490,-9.550,183.375,-9.625,171.062
15.833,30,-137.563,-32.875,66.188,-1.125,0.688,-1.938,-1.420,-1.260,-9.530,0.210,0.220,0.010,-1.640,-1.490,-9.550,183.313,-9.625,171.062
15.885,30,-138.250,-33.563,65.375,-3.313,0.375,-1.688,-1.450,-1.380,-9.420,0.180,0.090,0.120,-1.640,-1.470,-9.550,183.250,-9.625,171.187
15.907,30,-138.250,-33.250,65.375,-2.125,0.625,-2.500,-1.570,-1.580,-9.430,0.050,-0.120,0.110,-1.630,-1.460,-9.550,183.187,-9.563,171.250
15.931,30,-138.250,-33.250,65.375,-3.188,-1.313,-0.688,-1.540,-1.310,-9.320,0.100,0.140,0.220,-1.640,-1.450,-9.550,183.125,-9.625,171.312
15.955,30,-137.875,-32.062,66.063,-4.313,0.875,-0.938,-1.520,-1.460,-9.550,0.110,-0.020,0.000,-1.630,-1.440,-9.560,183.125,-9.563,171.375
15.997,30,-137.875,-34.063,65.500,-0.875,-1.438,0.313,-1.480,-1.310,-9.380,0.150,0.110,0.170,-1.640,-1.430,-9.560,183.125,-9.625,171.438
16.018,30,-137.875,-34.063,65.500,0.563,-0.250,-1.375,-1.550,-1.340,-9.520,0.090,0.080,0.030,-1.640,-1.430,-9.560,183.062,-9.625,171.438
16.042,30,-137.875,-34.063,65.500,2.000,-1.125,-2.875,-1.490,-1.490,-9.360,0.140,-0.050,0.190,-1.640,-1.440,-9.550,183.000,-9.625,171.375
16.063,30,-138.250,-34.375,66.375,1.313,0.000,-1.438,-1.460,-1.380,-9.410,0.180,0.060,0.130,-1.640,-1.440,-9.550,183.000,-9.625,171.375
16.107,30,-137.875,-33.250,65.500,3.250,-4.313,-4.125,-1.390,-1.460,-9.070,0.260,0.000,0.470,-1.650,-1.460,-9.550,182.875,-9.688,171.250
16.131,30,-137.875,-33.250,65.500,-1.188,2.063,0.063,-1.460,-1.230,-9.730,0.070,-0.010,0.070,-1.650,-1.450,-9.550,182.875,-9.688,171.312
16.155,30,-137.875,-34.063,65.500,-0.938,0.375,1.438,-1.520,-1.430,-9.380,0.120,0.010,0.170,-1.650,-1.450,-9.550,182.937,-9.688,171.312
16.199,30,-138.687,-34.063,65.500,1.125,0.250,-2.250,-1.540,-1.350,-9.520,0.110,0.100,0.030,-1.650,-1.450,-9.550,182.875,-9.688,171.312
16.22,30,-138.687,-34.063,65.500,0.500,-1.500,-0.313,-1.420,-1.470,-9.370,0.230,-0.020,0.180,-1.650,-1.450,-9.550,182.875,-9.688,171.312
16.244,30,-138.687,-34.063,65.500,0.000,-0.500,0.500,-1.550,-1.260,-9.520,0.040,0.060,0.090,-1.660,-1.450,-9.550,182.875,-9.750,171.312
16.265,30,-137.875,-33.688,66.375,-1.125,-0.563,1.688,-1.560,-1.470,-9.350,0.090,-0.020,0.200,-1.660,-1.450,-9.550,182.875,-9.750,171.312
16.318,30,-137.875,-33.688,65.500,-0.875,-1.188,2.063,-1.520,-1.530,-9.530,0.130,-0.080,0.010,-1.660,-1.440,-9.550,182.937,-9.750,171.375
16.343,30,-137.875,-33.688,65.500,-0.500,0.125,0.125,-1.440,-1.310,-9.280,0.160,0.030,0.160,-1.660,-1.440,-9.550,182.937,-9.750,171.375
16.366,30,-138.687,-33.375,67.188,-0.375,-1.313,0.500,-1.530,-1.470,-9.590,0.120,-0.030,-0.040,-1.660,-1.440,-9.550,182.937,-9.750,171.375
16.392,30,-138.687,-33.375,67.188,0.938,-2.625,-0.438,-1.440,-1.150,-9.260,0.230,0.290,0.280,-1.670,-1.440,-9.550,182.937,-9.813,171.375
16.433,30,-137.563,-33.688,65.188,0.250,-2.438,0.438,-1.540,-1.470,-9.320,0.150,0.000,0.270,-1.680,-1.440,-9.550,182.937,-9.813,171.375
16.457,30,-138.687,-33.688,66.000,-0.500,0.000,1.438,-1.590,-1.300,-9.390,0.080,0.140,0.160,-1.680,-1.440,-9.550,182.937,-9.813,171.375
16.481,30,-138.687,-33.688,66.000,-0.250,0.125,0.063,-1.590,-1.420,-9.480,0.080,0.010,0.070,-1.680,-1.440,-9.550,182.937,-9.813,171.375
16.505,30,-138.250,-34.063,65.062,-0.500,0.500,0.375,-1.550,-1.450,-9.450,0.110,0.000,0.100,-1.670,-1.440,-9.550,182.937,-9.813,171.375
16.55,30,-137.563,-34.375,65.062,0.313,0.063,-1.750,-1.440,-1.390,-9.600,0.230,0.040,-0.050,-1.670,-1.440,-9.550,182.875,-9.813,171.375
16.571,30,-137.563,-34.375,65.062,1.000,-2.313,0.188,-1.530,-1.290,-9.400,0.140,0.150,0.140,-1.680,-1.440,-9.550,182.875,-9.875,171.375
16.595,30,-137.563,-34.375,65.062,1.250,-1.063,-0.438,-1.600,-1.460,-9.300,0.030,0.000,0.240,-1.680,-1.450,-9.550,182.875,-9.875,171.312
16.639,30,-137.563,-34.063,65.500,-1.188,1.375,-0.188,-1.650,-1.610,-9.410,0.020,-0.170,0.130,-1.670,-1.440,-9.550,182.875,-9.813,171.375
16.661,30,-138.250,-34.375,66.000,-0.500,1.938,1.063,-1.430,-1.070,-9.610,0.230,0.360,-0.050,-1.660,-1.440,-9.550,182.875,-9.750,171.375
16.685,30,-138.250,-34.375,66.000,-0.375,0.375,-0.688,-1.480,-1.250,-9.520,0.180,0.190,0.030,-1.660,-1.440,-9.550,182.875,-9.750,171.375
16.709,30,-137.563,-33.688,65.500,-0.438,0.625,-1.500,-1.490,-1.440,-9.420,0.170,0.000,0.130,-1.660,-1.440,-9.550,182.875,-9.750,171.375
16.76,30,-138.687,-32.188,65.875,-1.625,2.375,1.000,-1.550,-1.370,-9.570,0.090,0.060,-0.010,-1.650,-1.430,-9.550,182.875,-9.688,171.438
16.785,30,-138.687,-32.188,65.875,-0.563,0.688,-0.250,-1.390,-1.570,-9.540,0.250,-0.130,0.010,-1.640,-1.430,-9.550,182.875,-9.625,171.438
16.809,30,-138.687,-33.375,64.250,-0.625,0.438,2.375,-1.440,-1.180,-9.320,0.200,0.240,0.230,-1.640,-1.430,-9.560,182.937,-9.625,171.438
16.831,30,-138.687,-33.375,64.250,-1.750,1.750,-0.625,-1.670,-1.530,-9.570,-0.030,-0.100,-0.010,-1.640,-1.420,-9.560,182.937,-9.563,171.500
16.875,30,-137.875,-34.375,65.875,-1.125,3.875,-1.563,-1.500,-1.190,-9.650,0.290,-0.010,-0.280,-1.630,-1.420,-9.560,182.875,-9.563,171.500
16.899,30,-137.875,-34.375,65.875,-1.688,-2.625,0.063,-1.550,-1.620,-9.160,0.330,0.600,0.000,-1.630,-1.410,-9.560,182.937,-9.563,171.562
16.92,30,-139.000,-33.375,66.563,0.188,0.125,-2.500,-1.480,-1.770,-9.470,0.150,-0.350,0.080,-1.630,-1.410,-9.560,182.875,-9.563,171.562
16.945,30,-139.000,-33.375,66.563,-0.813,-1.375,1.813,-1.420,-1.240,-9.600,0.210,0.170,-0.040,-1.630,-1.410,-9.560,182.937,-9.625,171.562
16.986,30,-138.687,-33.688,65.875,0.063,-2.188,0.563,-1.530,-1.280,-9.690,0.110,0.120,-0.120,-1.650,-1.410,-9.560,182.937,-9.688,171.562
17.01,30,-138.687,-33.375,65.875,0.375,-2.000,0.375,-1.570,-1.510,-9.340,0.080,-0.100,0.210,-1.650,-1.410,-9.560,182.937,-9.688,171.562
17.035,30,-138.687,-33.375,65.875,-1.125,-1.063,0.750,-1.480,-1.340,-9.250,0.170,0.060,0.300,-1.650,-1.400,-9.560,183.000,-9.688,171.625
17.079,30,-137.875,-34.063,64.688,-0.063,-1.688,0.688,-1.480,-1.350,-9.370,0.170,0.040,0.190,-1.650,-1.400,-9.560,182.937,-9.688,171.625
17.103,30,-138.250,-34.063,65.062,-1.688,-0.063,1.688,-1.590,-1.280,-9.520,0.060,0.100,0.030,-1.660,-1.390,-9.560,183.000,-9.688,171.625
17.124,30,-138.250,-34.063,65.062,0.250,-1.250,0.000,-1.480,-1.310,-9.490,0.170,0.080,0.070,-1.660,-1.390,-9.560,183.000,-9.750,171.687
17.148,30,-138.250,-34.063,65.062,-0.438,-0.938,0.938,-1.500,-1.270,-9.430,0.160,0.120,0.120,-1.660,-1.390,-9.560,183.000,-9.750,171.687
17.196,30,-137.563,-33.688,65.875,-0.563,0.813,-1.563,-1.520,-1.440,-9.580,0.130,-0.040,-0.010,-1.650,-1.390,-9.560,183.000,-9.688,171.687
17.22,30,-138.250,-34.375,65.375,-0.500,-0.563,-0.188,-1.650,-1.330,-9.490,0.000,0.060,0.070,-1.650,-1.390,-9.560,183.000,-9.688,171.687
17.244,30,-138.250,-34.375,65.375,1.438,-2.500,-0.313,-1.520,-1.370,-9.260,0.130,0.020,0.290,-1.660,-1.390,-9.560,182.937,-9.750,171.687
17.265,30,-137.875,-33.375,64.250,0.500,-1.625,0.750,-1.550,-1.290,-9.190,0.110,0.100,0.360,-1.670,-1.390,-9.560,183.000,-9.813,171.625
17.309,30,-139.000,-33.688,66.250,-0.313,-0.250,1.125,-1.470,-1.380,-9.390,0.190,0.010,0.160,-1.670,-1.390,-9.560,183.000,-9.813,171.625
17.334,30,-139.000,-33.688,66.250,-1.125,0.688,1.750,-1.470,-1.310,-9.600,0.190,0.070,-0.030,-1.660,-1.390,-9.560,183.000,-9.750,171.687
17.359,30,-139.000,-34.063,65.062,-0.625,-0.188,1.813,-1.430,-1.320,-9.470,0.220,0.060,0.080,-1.660,-1.380,-9.560,183.062,-9.750,171.750
17.38,30,-139.000,-34.063,65.062,-0.688,-0.250,1.688,-1.530,-1.260,-9.520,0.120,0.110,0.040,-1.660,-1.380,-9.560,183.062,-9.750,171.750
17.444,30,-138.687,-34.375,65.875,-1.313,-0.688,0.875,-1.530,-1.310,-9.300,0.130,0.050,0.250,-1.670,-1.370,-9.560,183.125,-9.813,171.812
17.466,30,-138.250,-34.063,65.062,-1.313,1.750,-0.438,-1.550,-1.290,-9.530,0.120,0.070,0.030,-1.670,-1.370,-9.560,183.125,-9.750,171.812
17.489,30,-138.250,-34.063,65.062,-0.500,0.250,0.250,-1.560,-1.310,-9.340,0.100,0.050,0.210,-1.660,-1.360,-9.560,183.125,-9.750,171.812
17.533,30,-137.875,-33.688,65.375,-0.563,0.688,0.813,-1.460,-1.380,-9.480,0.190,-0.020,0.080,-1.660,-1.360,-9.560,183.187,-9.750,171.875
17.559,30,-138.687,-34.063,65.375,-0.813,0.938,2.375,-1.450,-1.260,-9.510,0.200,0.080,0.050,-1.650,-1.350,-9.560,183.250,-9.688,171.875
17.58,30,-138.687,-34.063,65.375,-0.750,-0.313,1.375,-1.360,-1.550,-9.810,0.290,-0.200,-0.240,-1.650,-1.350,-9.570,183.313,-9.688,171.938
17.605,30,-138.687,-34.063,65.375,0.063,-2.625,3.125,-1.520,-1.160,-9.020,0.140,0.170,0.540,-1.670,-1.340,-9.560,183.375,-9.813,171.938
17.658,30,-137.875,-33.688,65.188,0.313,-1.625,1.750,-1.560,-1.270,-9.330,0.100,0.060,0.230,-1.660,-1.340,-9.570,183.437,-9.750,172.000
17.679,30,-137.875,-33.688,65.188,0.188,-0.875,0.625,-1.500,-1.310,-9.400,0.150,0.090,0.170,-1.670,-1.340,-9.560,183.437,-9.750,172.000
17.703,30,-137.875,-33.688,65.188,-0.813,1.188,1.063,-1.590,-1.250,-9.480,0.070,0.080,0.080,-1.660,-1.330,-9.570,183.500,-9.750,172.000
17.727,30,-139.000,-34.063,66.000,-1.250,0.250,0.000,-1.490,-1.630,-9.270,0.170,-0.300,0.290,-1.660,-1.330,-9.570,183.437,-9.750,172.062
17.779,30,-138.250,-34.063,66.375,-0.250,0.938,1.000,-1.530,-1.220,-9.480,0.120,0.040,0.150,-1.660,-1.320,-9.570,183.500,-9.750,172.062
17.814,30,-138.687,-34.063,66.000,-0.625,-0.500,0.750,-1.460,-1.200,-9.500,0.190,0.110,0.060,-1.650,-1.320,-9.570,183.562,-9.688,172.125
17.84,30,-138.687,-34.063,66.000,-0.250,-1.063,0.563,-1.410,-1.230,-9.470,0.250,0.000,0.100,-1.650,-1.320,-9.570,183.562,-9.688,172.125
17.864,30,-138.250,-34.750,66.000,0.188,-0.250,0.313,-1.500,-1.290,-9.350,0.150,0.020,0.220,-1.650,-1.320,-9.570,183.562,-9.688,172.125
17.909,30,-137.875,-34.375,66.000,0.625,0.500,-0.438,-1.590,-1.280,-9.500,0.050,0.030,0.060,-1.650,-1.320,-9.570,183.562,-9.688,172.125
17.933,30,-137.875,-34.375,66.000,0.250,-2.813,0.688,-1.520,-1.240,-9.450,0.130,0.070,0.110,-1.660,-1.320,-9.570,183.562,-9.688,172.125
17.958,30,-138.250,-31.875,66.000,-1.375,1.563,0.875,-1.510,-1.110,-9.640,0.130,0.190,-0.070,-1.650,-1.310,-9.570,183.562,-9.688,172.125
17.999,30,-138.250,-31.875,66.000,0.000,-2.438,0.750,-1.510,-1.230,-9.340,0.140,0.080,0.220,-1.660,-1.310,-9.570,183.562,-9.750,172.125
18.02,30,-137.875,-33.688,64.750,-0.313,-0.938,0.438,-1.560,-1.330,-9.390,0.090,-0.010,0.170,-1.660,-1.310,-9.570,183.562,-9.750,172.125
18.043,30,-137.875,-33.688,64.750,-1.125,-0.750,1.625,-1.700,-1.200,-9.550,-0.030,0.100,0.020,-1.670,-1.310,-9.570,183.625,-9.750,172.187
18.067,30,-137.875,-34.063,65.500,-2.250,-0.813,1.313,-1.690,-2.000,-9.610,-0.030,-0.700,-0.040,-1.670,-1.290,-9.570,183.687,-9.750,172.250
18.123,30,-138.250,-33.688,66.000,-6.625,-1.938,8.938,-1.530,-1.210,-9.400,0.160,0.020,0.170,-1.690,-1.230,-9.570,184.125,-9.938,172.625
18.149,30,-138.250,-33.688,66.000,-8.750,-3.063,15.500,-1.320,-0.560,-9.310,0.390,0.630,0.260,-1.710,-1.190,-9.580,184.438,-10.000,172.875
18.17,30,-136.750,-34.750,67.500,-0.938,-2.563,2.563,-1.350,-0.940,-9.390,0.360,0.220,0.190,-1.720,-1.170,-9.580,184.500,-10.125,172.937
18.194,30,-136.750,-34.750,67.500,0.375,-1.250,-0.500,-1.430,-0.980,-9.490,0.290,0.180,0.080,-1.720,-1.170,-9.580,184.500,-10.125,173.000
18.238,30,-137.187,-34.250,65.500,4.125,-3.313,-1.500,-1.630,-1.250,-9.320,0.090,-0.070,0.250,-1.720,-1.180,-9.570,184.500,-10.125,172.875
18.263,30,-137.563,-34.250,66.000,1.438,0.188,-0.438,-1.630,-1.190,-9.300,0.090,0.000,0.260,-1.730,-1.190,-9.570,184.500,-10.125,172.875
18.285,30,-137.563,-34.250,66.000,0.438,1.188,-1.563,-1.640,-1.150,-9.540,0.080,0.040,0.030,-1.730,-1.190,-9.570,184.438,-10.125,172.813
18.33,30,-137.875,-34.688,66.063,-1.688,1.313,1.000,-1.630,-1.130,-9.430,0.090,0.050,0.130,-1.720,-1.190,-9.570,184.438,-10.125,172.813
18.353,30,-137.875,-34.688,66.063,-1.625,0.625,0.813,-1.550,-1.160,-9.610,0.160,0.020,-0.030,-1.720,-1.190,-9.580,184.438,-10.063,172.875
18.374,30,-137.187,-32.500,64.063,-0.688,-0.313,1.563,-1.420,-1.040,-9.460,0.270,0.110,0.090,-1.710,-1.180,-9.580,184.500,-10.063,172.875
18.397,30,-137.187,-32.500,64.063,-0.625,-1.250,0.563,-1.760,-1.240,-9.410,-0.040,-0.050,0.160,-1.720,-1.180,-9.580,184.500,-10.063,172.937
18.44,30,-137.563,-35.500,67.562,-3.813,1.000,2.188,-1.650,-1.180,-9.380,0.060,-0.010,0.200,-1.720,-1.170,-9.580,184.500,-10.063,173.062
18.464,30,-137.187,-34.000,66.750,-7.875,4.125,8.125,-1.720,-1.510,-9.770,0.000,-0.370,-0.190,-1.710,-1.140,-9.580,184.688,-10.063,173.250
18.485,30,-137.187,-34.000,66.750,-3.313,-4.813,8.250,-1.360,-0.880,-9.410,0.370,0.240,0.170,-1.730,-1.120,-9.580,184.812,-10.188,173.312
18.512,30,-137.875,-34.000,68.063,2.813,-1.000,-0.188,-1.580,-1.090,-8.950,0.160,0.030,0.620,-1.750,-1.130,-9.580,184.812,-10.250,173.187
18.566,30,-137.187,-34.000,65.375,5.313,-1.500,-4.125,-1.550,-1.390,-9.350,0.120,0.000,0.320,-1.730,-1.170,-9.570,184.625,-10.188,172.937
18.587,30,-137.187,-34.000,65.375,0.813,3.188,-1.250,-1.620,-1.100,-9.530,0.100,0.070,0.040,-1.720,-1.180,-9.580,184.625,-10.125,172.937
18.611,30,-137.187,-34.000,65.375,5.375,-0.438,-4.625,-1.590,-1.070,-9.500,0.120,0.110,0.070,-1.720,-1.190,-9.570,184.562,-10.125,172.875
18.632,30,-138.250,-34.000,66.250,3.188,-0.313,-2.313,-1.640,-1.440,-9.440,0.080,-0.230,0.120,-1.720,-1.210,-9.570,184.500,-10.125,172.687
18.676,30,-136.750,-35.063,66.688,2.750,-3.938,-1.188,-1.530,-1.200,-9.640,0.220,0.200,-0.030,-1.740,-1.240,-9.560,184.438,-10.250,172.562
18.699,30,-136.750,-35.063,66.688,5.313,-1.000,-4.875,-1.810,-1.270,-9.290,-0.060,-0.010,0.270,-1.750,-1.250,-9.560,184.312,-10.250,172.500
18.722,30,-137.875,-34.250,66.250,-4.563,6.625,5.500,-2.710,-2.630,-9.080,-0.980,-1.380,0.480,-1.730,-1.250,-9.560,184.562,-10.000,172.625
18.767,30,-137.875,-34.250,66.250,-19.250,26.688,44.563,-1.090,-1.550,-10.210,0.880,0.030,-0.420,-1.590,-1.070,-9.610,186.062,-9.313,173.562
18.788,30,-137.875,-34.250,66.250,-11.500,7.125,57.750,0.000,1.120,-9.190,1.610,2.160,0.420,-1.610,-1.030,-9.610,187.062,-9.438,173.812
18.814,30,-137.563,-34.688,66.250,17.375,-19.938,-4.000,-0.870,0.330,-8.250,0.790,1.410,1.340,-1.670,-1.070,-9.600,187.250,-9.813,173.562
18.835,30,-137.563,-34.688,66.250,17.813,-8.688,-25.812,-1.960,-1.920,-9.070,-0.240,-0.680,-0.010,-1.710,-1.180,-9.580,186.625,-10.000,172.937
18.878,30,-137.187,-34.250,67.000,3.875,-7.500,-3.938,-1.880,-1.490,-9.260,-0.120,-0.250,0.300,-1.760,-1.230,-9.560,186.312,-10.313,172.625
18.904,30,-137.187,-34.250,67.000,1.375,-1.750,-3.625,-1.580,-0.830,-9.780,0.180,0.400,-0.210,-1.760,-1.230,-9.560,186.250,-10.375,172.562
18.925,30,-136.500,-34.688,66.875,4.563,-4.000,-8.000,-1.290,-1.280,-9.540,0.480,-0.030,0.010,-1.780,-1.260,-9.550,186.062,-10.438,172.438
18.949,30,-136.500,-34.688,66.875,4.313,-5.125,-3.125,-1.550,-1.080,-9.560,0.240,0.190,-0.010,-1.790,-1.280,-9.550,186.000,-10.500,172.312
19.001,30,-136.750,-34.250,65.375,-0.250,-1.063,-2.000,-1.710,-1.440,-9.370,0.100,-0.130,0.170,-1.820,-1.300,-9.540,185.812,-10.688,172.187
19.024,30,-137.187,-34.250,66.500,0.125,-0.500,-2.188,-1.660,-1.340,-9.560,0.150,-0.030,-0.010,-1.820,-1.300,-9.540,185.750,-10.688,172.125
19.048,30,-137.187,-34.250,66.500,1.375,-2.938,-1.250,-1.530,-1.180,-9.550,0.290,0.120,0.000,-1.830,-1.310,-9.540,185.750,-10.750,172.125
19.091,30,-136.063,-33.250,66.375,1.375,-5.500,1.563,-1.760,-1.420,-9.380,0.090,-0.090,0.140,-1.860,-1.330,-9.530,185.687,-10.938,172.000
19.117,30,-137.187,-34.000,67.250,2.813,-6.563,-0.813,-2.000,-1.260,-9.550,-0.120,0.060,-0.020,-1.880,-1.330,-9.530,185.687,-11.125,171.938
19.138,30,-137.187,-34.000,67.250,3.313,-7.500,-3.688,-1.500,-1.410,-9.410,0.400,-0.060,0.100,-1.910,-1.350,-9.520,185.625,-11.187,171.875
19.163,30,-137.187,-34.000,67.250,2.125,-0.438,0.688,-1.600,-1.010,-9.910,0.300,0.350,-0.390,-1.910,-1.360,-9.520,185.562,-11.250,171.812
19.204,30,-136.063,-34.000,66.000,8.625,-6.500,4.125,-2.040,-1.280,-8.610,-0.090,0.100,0.890,-1.950,-1.390,-9.500,185.687,-11.438,171.625
19.226,30,-136.750,-34.000,65.500,1.938,-1.188,-1.438,-1.810,-1.180,-8.900,0.130,0.220,0.600,-1.950,-1.410,-9.500,185.625,-11.500,171.500
19.25,30,-136.750,-34.000,65.500,0.438,3.375,-6.313,-1.890,-1.480,-9.800,0.040,-0.070,-0.290,-1.940,-1.410,-9.500,185.562,-11.375,171.500
19.274,30,-137.063,-33.563,66.375,1.500,-3.250,-0.063,-1.740,-1.270,-9.520,0.200,0.140,-0.010,-1.940,-1.420,-9.500,185.562,-11.500,171.438
19.318,30,-136.375,-33.563,65.500,1.313,-1.563,1.313,-1.840,-1.370,-9.310,0.120,0.050,0.180,-1.960,-1.430,-9.490,185.562,-11.563,171.375
19.339,30,-136.375,-33.563,65.500,2.313,-2.688,-1.125,-1.790,-1.380,-9.270,0.200,0.100,-0.080,-1.970,-1.440,-9.490,185.562,-11.625,171.312
19.362,30,-136.375,-33.563,65.500,2.250,-1.375,-2.688,-1.780,-1.510,-9.570,0.190,-0.060,-0.070,-1.970,-1.450,-9.490,185.500,-11.625,171.250
19.403,30,-136.000,-33.875,66.250,-3.000,0.250,2.438,-1.820,-1.580,-9.250,0.160,-0.130,0.230,-1.980,-1.440,-9.490,185.500,-11.688,171.312
19.426,30,-136.375,-33.188,64.250,-5.125,1.250,4.563,-2.090,-1.130,-9.630,-0.100,0.280,-0.140,-1.980,-1.420,-9.490,185.625,-11.625,171.438
19.458,30,-136.375,-33.188,64.250,-0.750,1.188,3.188,-1.810,-1.450,-9.050,0.160,-0.030,0.440,-1.970,-1.420,-9.490,185.687,-11.625,171.500
19.479,30,-137.063,-33.500,65.375,-2.188,2.000,2.000,-2.130,-1.450,-9.220,0.100,-0.010,0.130,-1.970,-1.410,-9.500,185.687,-11.563,171.500
19.524,30,-136.375,-31.688,65.750,-0.313,0.750,-1.875,-1.800,-1.360,-9.690,0.150,0.040,-0.180,-1.960,-1.400,-9.500,185.625,-11.500,171.500
19.546,30,-136.375,-31.688,65.750,2.813,-3.000,-3.250,-1.700,-1.600,-9.330,0.260,-0.180,0.160,-1.960,-1.420,-9.500,185.562,-11.563,171.438
19.571,30,-136.000,-32.750,66.188,-0.688,0.625,0.750,-1.780,-1.260,-9.490,0.170,0.150,0.010,-1.960,-1.410,-9.500,185.562,-11.500,171.500
19.596,30,-136.000,-32.750,66.188,-1.125,1.813,-0.563,-1.830,-1.390,-9.630,0.110,0.010,-0.120,-1.950,-1.410,-9.500,185.562,-11.438,171.500
19.64,30,-136.375,-33.500,66.188,-1.500,0.813,1.500,-1.700,-1.420,-9.330,0.230,0.070,0.140,-1.940,-1.390,-9.500,185.625,-11.438,171.625
19.664,30,-136.375,-33.500,66.188,-1.438,2.375,1.500,-1.720,-1.330,-9.470,0.210,0.060,0.030,-1.930,-1.390,-9.510,185.625,-11.375,171.625
19.685,30,-136.687,-32.750,66.188,0.188,-0.250,0.125,-1.860,-1.290,-9.340,0.060,0.100,0.160,-1.930,-1.390,-9.510,185.625,-11.375,171.625
19.73,30,-136.687,-33.188,65.250,-0.938,-0.625,-0.125,-1.810,-1.420,-9.510,0.070,0.040,0.240,-1.930,-1.390,-9.510,185.625,-11.375,171.625
19.754,30,-136.687,-33.188,65.250,-0.875,0.313,-0.313,-1.860,-1.380,-9.420,0.070,0.000,0.080,-1.930,-1.380,-9.510,185.625,-11.375,171.687
19.777,30,-136.687,-32.750,63.750,-1.500,0.125,0.188,-1.780,-1.270,-9.300,0.140,0.110,0.200,-1.930,-1.380,-9.510,185.625,-11.375,171.687
19.801,30,-136.687,-32.750,63.750,-1.750,1.063,-0.313,-1.780,-1.390,-9.310,0.210,0.000,-0.070,-1.930,-1.370,-9.510,185.625,-11.313,171.750
19.845,30,-136.375,-34.188,64.563,-1.875,1.313,0.125,-1.800,-1.260,-9.480,0.110,0.090,0.030,-1.920,-1.360,-9.510,185.625,-11.313,171.812
19.871,30,-136.687,-31.688,65.250,-0.688,1.000,-1.313,-1.670,-1.430,-9.590,0.240,-0.070,-0.070,-1.910,-1.360,-9.520,185.625,-11.250,171.875
19.892,30,-136.687,-31.688,65.250,-0.313,-1.125,1.500,-1.730,-1.150,-9.210,0.070,0.110,0.270,-1.920,-1.350,-9.520,185.625,-11.250,171.875
19.925,30,-136.375,-33.875,66.188,-0.313,2.313,0.000,-1.740,-1.280,-9.600,0.160,0.070,-0.070,-1.910,-1.350,-9.520,185.625,-11.187,171.875
19.968,30,-136.375,-34.188,66.500,-0.750,1.188,1.313,-1.790,-1.400,-9.530,0.100,-0.040,-0.010,-1.900,-1.350,-9.520,185.687,-11.187,171.875
19.989,30,-136.375,-34.188,66.500,-0.125,-0.688,1.625,-1.670,-1.290,-9.470,0.220,0.050,0.040,-1.900,-1.350,-9.520,185.750,-11.187,171.875
20.013,30,-136.375,-34.188,66.500,0.438,-0.875,0.688,-1.680,-1.310,-9.360,0.170,0.010,0.080,-1.900,-1.340,-9.520,185.750,-11.187,171.875
20.035,30,-137.500,-33.188,65.000,0.375,0.000,-0.375,-1.690,-1.300,-9.490,0.200,0.040,0.030,-1.900,-1.340,-9.520,185.750,-11.187,171.875
20.078,30,-136.687,-34.188,65.750,0.688,-1.063,-0.250,-1.790,-1.430,-9.420,0.100,-0.080,0.090,-1.900,-1.350,-9.520,185.750,-11.187,171.875
20.102,30,-136.687,-34.188,65.750,0.500,-1.813,1.188,-1.800,-1.260,-9.330,0.090,0.080,0.270,-1.910,-1.350,-9.520,185.750,-11.250,171.875
20.126,30,-137.063,-33.500,65.000,0.125,-1.438,-0.250,-1.740,-1.360,-9.470,0.170,0.000,0.040,-1.910,-1.350,-9.520,185.750,-11.250,171.875
20.167,30,-137.063,-33.500,65.000,-0.750,-0.750,0.063,-1.750,-1.330,-9.390,0.160,0.020,0.120,-1.910,-1.350,-9.520,185.750,-11.250,171.875
20.192,30,-136.000,-33.500,67.250,-0.688,-0.375,-0.063,-1.810,-1.290,-9.500,0.090,0.050,0.010,-1.910,-1.340,-9.520,185.750,-11.250,171.875
20.215,30,-136.000,-33.500,67.250,0.375,-2.188,-1.063,-1.810,-1.400,-9.330,0.100,-0.050,0.180,-1.920,-1.350,-9.520,185.687,-11.313,171.875
20.236,30,-136.000,-34.188,66.500,0.000,-1.375,-0.188,-1.830,-1.330,-9.400,0.090,0.010,0.110,-1.920,-1.350,-9.510,185.687,-11.313,171.875
20.28,30,-136.687,-33.500,65.750,0.500,-0.938,-0.875,-1.790,-1.290,-9.350,0.130,0.050,0.160,-1.930,-1.350,-9.510,185.687,-11.375,171.875
20.304,30,-136.687,-33.500,65.750,0.438,-0.188,-1.250,-1.910,-1.390,-9.400,0.110,0.080,0.100,-1.930,-1.350,-9.510,185.625,-11.375,171.875
20.328,30,-136.000,-33.875,65.000,-0.375,-0.500,-0.625,-1.770,-1.250,-9.510,0.160,0.090,0.000,-1.930,-1.350,-9.510,185.625,-11.375,171.875
20.353,30,-136.000,-33.875,65.000,0.375,-0.938,-0.063,-1.890,-1.330,-9.370,0.030,0.020,0.140,-1.930,-1.350,-9.510,185.625,-11.375,171.875
20.402,30,-135.562,-32.000,65.750,0.188,0.313,-0.750,-1.840,-1.360,-9.400,0.080,-0.010,0.110,-1.930,-1.350,-9.510,185.625,-11.313,171.875
20.427,30,-135.562,-33.500,63.750,-0.063,0.188,-0.875,-1.750,-1.300,-9.400,0.170,0.040,0.110,-1.930,-1.350,-9.510,185.625,-11.313,171.875
20.451,30,-135.562,-33.500,63.750,-0.250,0.750,0.125,-1.740,-1.290,-9.400,0.180,0.050,0.110,-1.920,-1.350,-9.510,185.625,-11.313,171.875
20.495,30,-136.000,-33.500,65.000,0.750,-1.500,0.063,-1.770,-1.280,-9.500,0.130,-0.020,0.180,-1.920,-1.350,-9.510,185.625,-11.313,171.875
20.519,30,-136.000,-33.500,65.000,0.250,-0.938,0.125,-1.770,-1.360,-9.350,0.160,-0.010,0.160,-1.930,-1.350,-9.510,185.625,-11.313,171.875
20.544,30,-136.687,-33.188,65.250,0.313,-0.188,-0.125,-1.890,-1.370,-9.280,0.030,-0.010,0.230,-1.930,-1.350,-9.510,185.625,-11.313,171.875
20.567,30,-136.687,-33.188,65.250,-0.375,0.688,-1.000,-1.820,-1.450,-9.350,0.100,-0.090,0.160,-1.920,-1.350,-9.510,185.625,-11.313,171.875
20.609,30,-137.063,-33.188,65.750,0.438,-1.375,0.313,-1.800,-1.270,-9.340,0.120,0.080,0.170,-1.930,-1.350,-9.510,185.562,-11.313,171.875
20.632,30,-136.000,-33.500,65.750,0.750,-1.188,-1.063,-1.790,-1.330,-9.380,0.140,0.020,0.130,-1.930,-1.350,-9.510,185.562,-11.375,171.812
20.655,30,-136.000,-33.500,65.750,1.000,-1.875,-1.250,-1.870,-1.420,-9.360,0.050,-0.090,0.200,-1.940,-1.360,-9.510,185.562,-11.375,171.812
20.679,30,-136.687,-34.188,67.000,-0.063,-1.313,0.000,-1.840,-1.370,-9.230,0.130,0.140,0.140,-1.940,-1.360,-9.510,185.562,-11.375,171.812
20.72,30,-136.687,-34.188,67.000,0.500,-1.125,-0.625,-1.910,-1.360,-9.230,0.030,0.000,0.280,-1.940,-1.360,-9.510,185.500,-11.438,171.750
20.741,30,-136.000,-34.188,64.188,0.938,0.313,-1.500,-1.790,-1.300,-9.380,0.140,0.060,0.130,-1.940,-1.370,-9.510,185.500,-11.438,171.750
20.766,30,-136.000,-34.188,64.188,1.250,0.063,-0.438,-1.850,-1.330,-9.370,0.080,0.030,0.140,-1.940,-1.370,-9.510,185.500,-11.438,171.750
20.788,30,-136.000,-32.000,66.500,1.438,0.688,-1.250,-1.780,-1.480,-9.390,0.160,-0.100,0.120,-1.940,-1.380,-9.510,185.437,-11.375,171.687
20.833,30,-136.375,-33.500,65.750,3.813,4.188,1.438,-1.870,-1.350,-9.410,0.050,0.050,0.090,-1.920,-1.400,-9.510,185.500,-11.313,171.562
20.864,30,-136.375,-33.500,65.750,6.500,1.250,-1.375,-1.800,-1.510,-9.230,0.110,-0.080,0.270,-1.910,-1.430,-9.510,185.500,-11.250,171.375
20.886,30,-136.687,-33.500,65.250,6.063,4.563,0.188,-1.720,-1.690,-8.900,0.190,0.170,0.170,-1.880,-1.470,-9.500,185.500,-11.063,171.187
20.929,30,-136.687,-32.750,64.188,23.500,2.125,-7.375,-1.620,-1.450,-9.840,0.010,-0.300,0.800,-1.840,-1.620,-9.490,185.375,-10.813,170.250
20.95,30,-136.687,-32.750,64.188,19.500,6.813,-7.000,-1.510,-1.200,-9.280,0.310,0.480,0.190,-1.820,-1.690,-9.480,185.313,-10.688,169.875
20.976,30,-136.687,-33.500,65.062,8.375,4.063,-8.875,-1.640,-1.850,-9.760,0.150,-0.120,-0.280,-1.800,-1.730,-9.480,185.125,-10.562,169.625
20.997,30,-136.687,-33.500,65.062,12.938,0.563,-4.188,-1.600,-2.050,-9.590,0.060,-0.020,0.050,-1.790,-1.790,-9.470,185.062,-10.562,169.250
21.041,30,-136.687,-32.375,65.000,22.875,1.875,-8.188,-1.570,-1.680,-9.010,0.210,0.200,0.440,-1.790,-1.890,-9.450,185.000,-10.500,168.625
21.067,30,-136.687,-32.375,65.000,26.313,6.500,-12.313,-1.670,-1.980,-9.220,0.090,0.000,0.210,-1.760,-1.980,-9.430,184.750,-10.313,167.875
21.088,30,-136.375,-32.375,63.875,16.375,3.625,-8.563,-1.400,-1.860,-9.520,0.030,-0.140,0.020,-1.740,-2.070,-9.420,184.562,-10.188,167.562
21.113,30,-136.375,-32.375,63.875,28.000,3.063,-11.688,-1.450,-1.560,-9.660,0.260,0.600,-0.250,-1.720,-2.160,-9.400,184.438,-10.125,167.000
21.155,30,-137.750,-31.688,64.250,27.313,-3.875,-9.313,-1.360,-2.610,-8.480,0.340,-0.260,0.880,-1.710,-2.340,-9.360,183.937,-10.000,165.437
21.179,30,-138.187,-31.688,64.375,58.250,11.125,-19.375,-1.460,-1.890,-9.820,0.210,0.620,-0.490,-1.650,-2.610,-9.300,183.625,-9.688,164.250
21.2,30,-138.187,-31.688,64.375,51.688,7.125,-24.125,-1.670,-3.510,-9.470,-0.060,-0.730,-0.200,-1.610,-2.770,-9.260,183.375,-9.438,163.312
21.246,30,-138.187,-30.563,63.375,37.625,0.563,-11.875,-1.530,-3.180,-8.580,0.030,-0.140,0.600,-1.560,-3.040,-9.180,182.875,-9.125,161.312
21.27,30,-138.187,-30.563,63.375,33.000,6.250,-12.688,-1.480,-3.370,-8.680,0.050,-0.210,0.470,-1.510,-3.200,-9.140,182.750,-8.875,160.625
21.291,30,-138.187,-29.500,61.688,26.437,7.125,-12.313,-1.490,-3.530,-9.230,0.000,-0.240,-0.110,-1.480,-3.290,-9.110,182.500,-8.625,159.812
21.329,30,-139.250,-27.188,62.188,25.250,0.813,-9.125,-1.270,-3.620,-8.640,0.180,-0.210,0.420,-1.460,-3.410,-9.070,182.312,-8.500,159.000
21.37,30,-139.250,-27.188,62.188,46.000,3.063,-19.688,-1.360,-4.060,-9.750,0.020,-0.370,-0.780,-1.390,-3.750,-8.950,181.750,-8.125,157.188
21.391,30,-139.688,-28.250,63.187,36.625,-7.500,-8.000,-1.390,-4.030,-8.810,0.010,-0.160,0.080,-1.400,-3.860,-8.900,181.687,-8.250,156.500
21.417,30,-139.688,-28.250,63.187,46.813,-10.438,-9.063,-1.110,-3.910,-7.780,0.320,0.080,1.050,-1.430,-4.000,-8.830,181.500,-8.375,155.562
21.438,30,-139.688,-27.062,62.375,44.500,-2.438,-13.625,-1.320,-4.130,-8.610,0.100,0.000,0.150,-1.410,-4.200,-8.740,181.250,-8.313,154.250
21.481,30,-139.688,-25.875,62.188,51.375,-0.438,-13.750,-1.680,-4.190,-9.200,-0.290,0.200,-0.550,-1.390,-4.470,-8.610,180.875,-8.125,152.500
21.502,30,-139.688,-25.875,62.188,36.313,1.438,-14.813,-1.650,-4.980,-9.030,-0.280,-0.410,-0.460,-1.360,-4.570,-8.560,180.688,-7.938,151.875
21.528,30,-140.375,-24.562,61.875,35.000,-5.063,-8.438,-1.190,-4.340,-8.050,0.170,0.320,0.460,-1.360,-4.670,-8.510,180.625,-8.000,151.187
21.569,30,-140.375,-24.562,61.875,41.688,-0.875,-13.438,-1.210,-5.150,-9.440,0.080,-0.220,-1.060,-1.300,-4.930,-8.370,180.125,-7.625,149.500
21.59,30,-140.688,-24.500,59.563,29.063,-12.750,-2.250,-1.130,-5.160,-8.440,-0.090,0.380,-0.090,-1.330,-5.060,-8.280,180.000,-7.813,148.562
21.614,30,-140.688,-24.500,59.563,27.313,-12.313,-5.375,-1.050,-5.160,-8.000,0.300,-0.010,0.220,-1.360,-5.150,-8.230,179.875,-8.000,147.937
21.637,30,-140.375,-24.250,60.188,25.187,-13.750,-2.375,-1.430,-5.220,-8.390,-0.040,0.000,-0.210,-1.390,-5.220,-8.180,179.750,-8.313,147.125
21.681,30,-139.688,-21.563,60.563,25.375,-16.375,-0.063,-1.610,-5.100,-7.840,-0.110,0.250,0.220,-1.490,-5.360,-8.060,179.500,-8.875,146.062
21.702,30,-139.688,-21.563,60.563,28.750,-16.438,-8.625,-1.290,-5.780,-8.230,0.250,-0.290,-0.250,-1.540,-5.490,-7.970,179.312,-9.063,145.437
21.727,30,-140.562,-22.563,59.750,33.063,-21.188,-4.313,-1.670,-5.520,-8.220,-0.070,0.050,-0.310,-1.590,-5.580,-7.900,179.125,-9.313,144.750
21.753,30,-140.562,-22.563,59.750,31.875,-20.688,-4.938,-1.550,-5.740,-8.150,0.110,-0.020,-0.350,-1.660,-5.710,-7.790,178.875,-9.750,143.687
21.798,30,-139.187,-20.563,57.750,32.313,-17.875,-3.125,-1.450,-5.730,-8.140,0.290,0.160,-0.510,-1.750,-5.900,-7.630,178.500,-10.375,141.875
21.822,30,-139.187,-20.563,57.750,44.188,-25.875,-3.250,-2.000,-6.000,-7.140,-0.190,0.000,0.380,-1.800,-6.000,-7.530,178.375,-10.688,140.937
21.843,30,-139.500,-21.063,57.875,39.563,-18.313,-8.625,-1.730,-6.770,-7.340,0.120,-0.590,0.040,-1.850,-6.170,-7.380,178.062,-10.875,140.062
21.888,30,-139.375,-19.000,55.250,27.625,-15.375,-5.750,-1.710,-6.330,-6.760,0.220,0.030,0.430,-1.940,-6.360,-7.190,177.625,-11.438,138.250
21.912,30,-139.375,-19.000,55.250,18.563,-10.750,-3.938,-1.760,-6.560,-7.200,0.010,0.280,-0.240,-1.970,-6.430,-7.120,177.562,-11.563,137.875
21.936,30,-138.875,-19.750,54.875,16.375,-9.500,-0.750,-1.970,-6.720,-7.530,0.020,-0.230,-0.460,-1.990,-6.490,-7.070,177.437,-11.688,137.437
21.958,30,-138.875,-19.750,54.875,32.625,-21.250,-6.813,-2.000,-6.760,-7.480,0.020,-0.190,-0.490,-2.020,-6.560,-6.990,177.125,-12.000,136.375
22.002,30,-138.750,-18.688,54.000,43.250,-26.688,-7.063,-1.950,-6.970,-6.970,0.000,-0.080,-0.090,-2.140,-6.810,-6.720,321.812,-12.563,134.625
22.026,30,-138.750,-18.688,54.000,43.375,-24.938,-3.750,-2.070,-6.670,-6.100,0.260,0.300,-0.010,-2.170,-6.900,-6.610,321.500,-12.813,133.750
22.047,30,-139.750,-17.750,51.375,29.813,-13.750,-7.875,-2.030,-7.040,-6.820,0.140,-0.070,-0.280,-2.180,-6.970,-6.540,321.500,-12.875,133.125
22.072,30,-139.750,-17.750,51.375,42.813,-20.250,-10.750,-1.930,-7.190,-6.400,0.260,-0.120,0.030,-2.200,-7.060,-6.430,321.375,-13.000,132.313
22.113,30,-138.500,-18.563,49.188,46.250,-20.688,-8.188,-2.190,-7.010,-6.180,-0.050,0.260,0.050,-2.250,-7.310,-6.120,321.250,-13.313,129.875
22.137,30,-139.187,-16.750,47.750,51.438,-22.000,-14.063,-2.370,-7.940,-5.640,-0.100,-0.510,0.330,-2.260,-7.430,-5.970,321.312,-13.375,128.750
22.159,30,-139.187,-16.750,47.750,37.813,-17.313,-7.000,-2.010,-7.820,-5.030,0.260,-0.290,0.810,-2.280,-7.530,-5.840,321.312,-13.438,127.500
22.203,30,-138.187,-15.688,45.500,-15.125,16.313,-1.938,-2.310,-7.330,-5.750,-0.040,0.000,0.010,-2.210,-7.540,-5.860,322.250,-13.000,127.812
22.238,30,-138.000,-13.750,43.750,-19.188,14.188,-2.563,-2.160,-8.010,-6.600,0.010,-0.490,-0.700,-2.180,-7.510,-5.900,322.563,-12.813,128.125
22.262,30,-138.000,-13.750,43.750,2.813,-5.188,-0.938,-2.000,-7.300,-6.510,0.180,0.210,-0.610,-2.180,-7.530,-5.880,322.438,-12.875,128.000
22.286,30,-138.875,-14.250,44.000,12.750,-5.250,-1.438,-1.820,-7.580,-6.080,0.270,-0.120,-0.240,-2.190,-7.550,-5.850,322.500,-12.875,127.750
22.327,30,-138.875,-14.250,44.000,2.250,6.688,4.125,-2.030,-7.960,-5.390,0.040,-0.210,0.290,-2.180,-7.560,-5.840,322.937,-12.813,127.625
22.348,30,-138.563,-15.063,44.375,62.125,42.000,14.625,-1.880,-8.550,-6.050,0.270,-0.920,-0.280,-2.160,-7.620,-5.760,324.125,-12.688,127.062
22.373,30,-138.563,-15.063,44.375,100.312,47.750,6.000,-2.040,-9.300,-4.650,0.010,-1.480,0.890,-2.060,-7.810,-5.540,326.875,-12.125,125.312
22.414,30,-138.063,-14.000,43.000,23.500,50.188,33.438,-2.340,-8.430,-5.940,0.300,0.320,-0.990,-2.030,-7.990,-5.290,330.813,-11.938,123.500
22.438,30,-139.063,-14.875,40.188,83.500,32.500,36.000,-1.940,-6.070,-5.910,0.130,2.050,-0.820,-2.070,-8.120,-5.080,331.687,-12.188,122.000
22.46,30,-139.063,-14.875,40.188,18.188,-13.813,2.688,-1.780,-7.950,-4.420,0.330,0.210,0.550,-2.120,-8.170,-4.980,331.375,-12.500,121.312
22.485,30,-137.250,-14.750,37.188,54.313,18.250,0.563,-1.750,-11.280,-5.240,0.340,-3.060,-0.330,-2.100,-8.220,-4.910,332.500,-12.250,120.313
22.526,30,-137.250,-14.750,37.188,74.250,-19.250,28.375,-2.180,-7.800,-3.680,0.010,0.640,0.770,-2.230,-8.490,-4.360,332.687,-13.125,117.188
22.547,30,-138.000,-14.188,35.563,66.750,0.375,14.625,-2.310,-7.020,-4.970,-0.040,1.540,-0.780,-2.270,-8.570,-4.180,332.875,-13.375,116.000
22.572,30,-138.000,-14.188,35.563,-4.875,-8.313,-2.563,-2.250,-7.360,-2.250,0.030,1.210,1.890,-2.290,-8.580,-4.150,332.562,-13.500,115.812
22.594,30,-136.500,-14.063,31.563,-13.062,9.063,-7.313,-2.880,-8.520,-4.370,-0.620,0.040,-0.160,-2.250,-8.590,-4.150,333.125,-13.313,115.750
22.637,30,-135.687,-13.563,28.750,44.437,-5.188,0.438,-1.450,-9.640,-3.780,0.780,-0.910,0.060,-2.240,-8.740,-3.830,334.000,-13.188,113.625
22.664,30,-135.687,-13.563,28.750,-7.813,-5.688,5.125,-2.170,-8.370,-3.740,0.090,0.350,0.100,-2.250,-8.720,-3.850,333.687,-13.313,113.812
22.688,30,-136.750,-13.875,26.500,-0.875,3.750,-11.688,-2.200,-9.500,-5.230,0.520,-0.530,-0.900,-2.230,-8.730,-3.850,333.875,-13.125,113.750
22.729,30,-136.750,-13.875,26.500,4.063,-5.375,2.500,-2.010,-8.840,-4.390,0.290,-0.590,-0.810,-2.250,-8.740,-3.810,333.562,-13.313,113.500
22.75,30,-136.750,-14.000,23.375,16.563,-17.125,6.688,-2.450,-8.720,-3.720,-0.150,0.030,0.020,-2.290,-8.760,-3.750,333.062,-13.500,113.125
22.776,30,-136.750,-14.000,23.375,14.688,-13.062,-1.188,-2.080,-9.120,-3.910,0.230,-0.340,-0.210,-2.310,-8.780,-3.690,332.625,-13.687,112.625
22.797,30,-136.375,-12.750,23.688,12.250,-10.188,6.250,-2.410,-9.020,-3.490,0.640,-0.090,-0.360,-2.360,-8.790,-3.630,332.312,-13.938,112.375
22.842,30,-136.750,-13.188,22.500,66.250,10.063,-8.125,-2.500,-10.350,-4.420,-0.120,-1.450,-1.050,-2.370,-8.890,-3.370,333.000,-14.000,110.750
22.866,30,-136.750,-13.188,22.500,17.688,-0.125,5.750,-2.340,-9.190,-3.140,0.030,-0.260,0.130,-2.390,-8.930,-3.260,333.062,-14.125,110.062
22.89,30,-136.250,-13.750,21.188,4.750,-10.750,5.438,-2.300,-8.490,-3.320,0.170,0.010,0.320,-2.410,-8.930,-3.240,332.750,-14.250,109.938
22.913,30,-136.250,-13.750,21.188,0.375,-3.500,2.375,-2.510,-8.940,-3.410,-0.080,-0.010,-0.170,-2.420,-8.930,-3.240,332.562,-14.313,109.875
22.957,30,-135.187,-13.687,20.250,0.500,-3.375,1.063,-2.470,-8.980,-3.520,-0.030,-0.050,-0.280,-2.440,-8.930,-3.220,332.312,-14.375,109.875
22.98,30,-135.187,-13.687,20.250,1.250,-7.813,0.063,-2.240,-8.990,-3.230,-0.060,0.440,-0.460,-2.450,-8.930,-3.210,332.125,-14.438,109.750
23.001,30,-136.250,-12.875,19.000,9.688,-24.875,-18.500,-1.980,-10.220,-2.060,0.440,-1.260,1.090,-2.420,-8.950,-3.160,332.000,-14.250,109.438
23.046,30,-136.687,-13.500,19.500,6.250,-14.688,10.938,-1.660,-8.320,-2.600,0.820,0.640,0.490,-2.500,-8.960,-3.090,331.125,-14.750,109.000
23.07,30,-136.687,-13.500,19.500,-3.688,8.000,4.438,-2.780,-9.400,-3.830,-0.270,-0.450,-0.710,-2.510,-8.950,-3.110,331.187,-14.813,109.125
23.094,30,-135.875,-11.250,18.750,6.250,-4.250,5.500,-2.910,-9.000,-3.120,-0.380,-0.050,-0.030,-2.530,-8.950,-3.090,330.875,-15.063,108.875
23.13,30,-135.875,-11.250,18.750,7.438,-6.125,4.500,-2.200,-8.980,-3.070,0.360,-0.020,-0.010,-2.570,-8.960,-3.040,330.750,-15.188,108.750
23.172,30,-136.687,-13.375,19.250,11.438,-8.063,5.375,-2.280,-9.550,-3.570,0.320,-0.580,-0.580,-2.610,-8.960,-2.990,330.375,-15.438,108.438
23.195,30,-135.750,-13.375,18.563,-25.938,-17.563,23.000,-2.500,-6.350,3.480,0.170,2.580,6.480,-2.670,-8.940,-3.000,329.375,-16.000,109.250
23.219,30,-135.750,-13.375,18.563,-33.937,21.063,-13.250,-4.190,-11.170,-7.940,-0.500,-4.760,0.480,-2.630,-8.890,-3.180,329.562,-15.563,109.687
23.243,30,-135.750,-13.375,17.688,-14.625,-19.688,3.938,-2.070,-10.120,-4.890,0.580,-1.250,-1.660,-2.660,-8.870,-3.220,329.312,-15.750,109.938
23.287,30,-135.375,-12.563,19.063,-2.125,9.625,7.125,-3.460,-10.100,-5.430,-0.720,-1.270,-2.170,-2.730,-8.830,-3.250,328.750,-16.188,110.187
23.308,30,-135.375,-12.563,19.063,20.875,-14.250,19.688,-3.080,-9.240,-4.720,-0.290,-0.400,-1.510,-2.830,-8.840,-3.140,328.062,-16.750,109.562
23.332,30,-135.375,-12.563,19.063,39.375,-19.688,16.063,-3.250,-9.080,-2.640,-0.380,-0.220,0.420,-2.890,-8.870,-3.000,327.688,-17.125,108.687
23.373,30,-135.062,-13.000,18.750,41.875,-27.813,7.625,-3.130,-8.320,-1.290,-0.110,0.610,1.360,-3.010,-8.940,-2.650,326.937,-17.875,106.500
23.396,30,-134.000,-11.500,16.750,12.688,-1.500,0.500,-2.710,-9.110,-1.640,0.310,-0.150,0.940,-3.030,-8.960,-2.580,326.937,-18.000,106.062
23.42,30,-134.000,-11.500,16.750,-1.125,9.688,7.063,-2.670,-8.880,-2.750,0.020,0.630,-0.130,-3.020,-8.960,-2.570,327.187,-17.938,106.000
23.444,30,-134.000,-13.250,16.250,15.375,1.375,-28.125,-3.120,-9.690,-2.190,-0.180,-0.690,0.360,-2.940,-8.990,-2.560,327.750,-17.438,105.875
23.486,30,-134.000,-13.250,16.250,-32.750,-2.125,-0.750,-2.220,-9.290,-3.300,0.650,-0.320,-0.560,-2.870,-8.960,-2.740,328.062,-17.000,106.937
23.507,30,-135.000,-12.875,16.375,-22.375,0.063,1.250,-3.140,-9.380,-1.720,-0.260,-0.430,1.080,-2.870,-8.940,-2.800,327.812,-17.000,107.625
23.531,30,-135.000,-12.875,16.375,-7.750,19.125,9.750,-2.310,-10.620,-2.990,0.570,-1.690,-0.130,-2.880,-8.920,-2.860,327.875,-17.313,107.750
23.562,30,-134.562,-13.188,16.188,26.063,-4.813,63.125,-3.780,-8.170,-2.600,-0.590,0.670,0.140,-3.180,-8.850,-2.750,326.375,-18.938,107.250
23.609,30,-133.500,-12.375,17.375,30.125,3.500,-6.250,-3.500,-10.290,-3.240,-0.220,-1.430,-0.610,-3.270,-8.870,-2.570,326.375,-19.500,106.125
23.633,30,-133.500,-12.375,17.375,54.250,1.250,-2.063,-3.230,-7.390,-2.350,0.030,1.500,0.130,-3.230,-8.940,-2.390,327.250,-19.250,105.000
23.654,30,-132.000,-12.375,16.188,69.875,45.938,-31.313,-3.410,-10.420,-3.780,-0.300,-1.390,-1.550,-3.100,-9.020,-2.220,329.375,-18.438,103.812
23.698,30,-133.000,-13.375,14.000,87.813,9.625,-25.875,-1.680,-7.890,-2.040,1.280,1.280,-0.300,-2.970,-9.180,-1.730,332.875,-17.188,99.875
23.722,30,-133.000,-13.375,14.000,84.375,0.688,-52.250,-2.060,-8.900,-2.740,-0.050,0.270,-0.750,-2.730,-9.320,-1.330,334.375,-16.188,98.125
23.746,30,-133.000,-14.188,12.375,91.000,-31.625,-60.062,-2.100,-9.650,0.490,0.460,-0.250,1.520,-2.560,-9.400,-1.030,335.312,-15.125,96.250
23.77,30,-133.000,-14.188,12.375,42.875,-3.438,-39.063,-3.020,-11.520,0.370,-0.580,-2.060,1.220,-2.400,-9.470,-0.800,336.500,-14.125,94.812
23.814,30,-136.375,-14.500,8.875,18.813,9.438,29.000,-1.540,-6.980,-1.150,0.980,2.460,-0.500,-2.520,-9.450,-0.640,336.437,-14.875,93.875
23.84,30,-134.875,-14.688,8.688,32.750,-19.188,-3.750,-1.710,-8.960,-0.310,0.840,0.480,0.210,-2.560,-9.450,-0.530,336.000,-15.125,93.188
23.861,30,-134.875,-14.688,8.688,46.625,-17.125,-12.750,-2.710,-10.210,-0.080,-0.200,-0.740,0.290,-2.490,-9.470,-0.300,336.312,-14.750,91.813
23.885,30,-134.875,-14.688,8.688,38.625,-6.563,-9.813,-2.620,-9.420,0.700,0.130,-0.340,0.540,-2.460,-9.480,-0.170,336.625,-14.563,91.000
23.926,30,-136.000,-14.875,6.250,42.500,1.313,-6.188,-2.650,-9.190,-1.160,-0.250,0.300,-1.280,-2.390,-9.500,0.110,337.750,-14.125,89.250
23.949,30,-136.000,-15.563,6.375,28.750,-13.875,-16.875,-2.390,-9.300,-0.040,-0.040,0.210,-0.270,-2.350,-9.510,0.220,338.125,-13.625,88.313
23.973,30,-136.000,-15.563,6.375,34.438,-21.938,-27.625,-2.400,-9.810,0.600,-0.100,-0.440,0.560,-2.220,-9.540,0.420,338.437,-13.062,87.438
24.016,30,-136.375,-15.688,6.500,50.062,3.688,-16.938,-1.940,-9.700,0.360,0.230,-0.180,-1.180,-2.050,-9.550,0.840,339.687,-12.063,84.875
24.051,30,-137.063,-15.500,3.750,42.125,-10.562,-17.875,-2.170,-9.510,0.050,-0.180,0.020,-0.940,-1.960,-9.540,1.060,340.188,-11.500,83.625
24.075,30,-137.063,-15.500,3.750,25.563,-15.313,-14.625,-1.530,-9.890,1.060,0.380,-0.350,-0.100,-1.910,-9.540,1.160,340.312,-11.250,83.000
24.099,30,-137.375,-16.000,3.563,38.625,-13.313,-6.125,-1.700,-9.420,1.110,0.170,0.100,-0.180,-1.880,-9.530,1.300,340.312,-11.063,82.188
24.144,30,-138.063,-15.375,3.000,55.563,-4.750,-4.313,-2.200,-10.400,1.270,-0.370,-0.910,-0.350,-1.830,-9.490,1.620,340.625,-10.750,79.688
24.165,30,-138.063,-15.375,3.000,46.813,-5.563,7.438,-2.060,-9.370,1.590,-0.200,0.070,-0.250,-1.850,-9.440,1.850,340.500,-10.875,78.875
24.19,30,-138.063,-15.375,3.000,36.875,-8.625,5.625,-1.850,-9.110,1.480,0.020,0.300,-0.490,-1.870,-9.410,1.980,340.375,-11.000,78.063
24.211,30,-138.687,-18.063,3.563,43.563,-15.438,-0.813,-2.080,-9.950,1.670,-0.220,-0.550,-0.440,-1.860,-9.390,2.110,340.188,-10.875,76.688
24.255,30,-137.875,-18.188,1.750,60.438,-21.000,-12.500,-1.160,-9.350,2.910,0.590,-0.080,0.250,-1.760,-9.270,2.660,340.062,-10.313,73.938
24.279,30,-137.875,-18.188,1.750,76.312,-23.750,-22.250,-2.020,-10.840,2.950,-0.350,-1.630,0.030,-1.670,-9.210,2.910,340.188,-9.813,72.375
24.302,30,-138.563,-19.375,0.563,70.875,-7.438,-4.688,-1.690,-8.930,2.240,-0.060,0.200,-0.910,-1.620,-9.140,3.150,340.500,-9.563,70.375
24.326,30,-138.563,-19.375,0.563,47.750,-9.875,3.188,-1.320,-8.820,2.690,0.290,0.230,-0.680,-1.610,-9.050,3.380,340.437,-9.500,69.500
24.37,30,-138.500,-20.000,-0.688,51.312,-19.000,-1.000,-1.600,-8.700,4.270,-0.050,0.260,0.610,-1.550,-8.960,3.660,340.188,-9.063,67.188
24.395,30,-139.500,-21.063,-2.250,52.250,1.500,-4.313,-1.840,-9.490,2.800,-0.300,-0.590,-1.020,-1.540,-8.890,3.820,340.375,-9.000,66.188
24.416,30,-139.500,-21.063,-2.250,38.063,-3.750,3.313,-1.670,-9.080,3.290,-0.130,-0.260,-0.700,-1.540,-8.810,4.000,340.375,-9.063,65.563
24.461,30,-138.563,-20.875,-2.500,3.250,2.375,-2.875,-1.330,-9.750,3.210,0.210,-0.960,-0.840,-1.550,-8.790,4.050,340.562,-9.063,65.188
24.493,30,-138.875,-21.250,-4.063,43.750,-19.875,-1.438,-1.120,-8.320,3.280,0.400,0.390,-0.930,-1.530,-8.710,4.210,340.375,-8.938,64.125
24.514,30,-138.875,-21.250,-4.063,27.625,-24.000,-9.563,-0.940,-8.490,3.590,0.530,0.170,-0.730,-1.430,-8.650,4.380,340.312,-8.375,63.063
24.538,30,-138.875,-21.250,-4.063,34.750,-40.188,-15.563,-1.500,-8.370,5.010,-0.120,0.240,0.560,-1.320,-8.600,4.500,340.250,-7.750,62.375
24.579,30,-139.063,-20.875,-3.875,15.250,-10.562,4.000,-1.710,-7.540,3.440,-0.450,1.020,-1.150,-1.260,-8.560,4.590,340.188,-7.375,61.750
24.602,30,-140.188,-22.563,-4.750,68.063,-32.125,14.313,-1.200,-6.630,3.680,0.050,1.840,-1.080,-1.250,-8.470,4.760,339.500,-7.250,59.750
24.626,30,-140.188,-22.563,-4.750,84.625,-35.250,2.125,-1.110,-9.310,3.800,-0.510,-1.220,-0.920,-1.180,-8.270,5.120,339.188,-6.938,58.250
24.65,30,-140.750,-22.500,-4.875,38.438,-57.813,27.125,-1.770,-8.620,7.610,-0.600,-0.420,2.360,-1.160,-8.190,5.250,338.063,-6.813,57.313
24.692,30,-140.750,-22.500,-4.875,53.875,15.500,33.125,-1.030,-9.140,4.510,0.300,-1.080,-0.910,-1.330,-8.050,5.420,336.625,-7.813,56.000
24.713,30,-140.250,-23.250,-5.875,52.562,14.688,34.750,-1.250,-8.530,4.270,0.200,-0.600,-1.290,-1.450,-7.930,5.570,336.000,-8.875,54.500
24.737,30,-140.250,-23.250,-5.875,22.750,7.125,32.750,-2.300,-8.090,4.830,-0.730,-0.230,-0.820,-1.560,-7.860,5.650,335.500,-9.375,54.063
24.758,30,-140.750,-22.188,-6.188,10.000,-2.063,11.313,-2.170,-8.420,5.520,-0.560,-0.600,-0.160,-1.610,-7.820,5.680,335.437,-9.438,54.000
24.801,30,-139.063,-22.875,-8.000,-7.750,-12.000,-9.125,-1.440,-7.850,5.030,0.090,0.000,-0.610,-1.530,-7.860,5.650,335.562,-9.000,54.250
24.825,30,-139.063,-22.875,-8.000,-12.500,-18.938,-16.250,-1.380,-8.030,5.390,0.070,-0.130,-0.230,-1.460,-7.890,5.620,335.687,-8.313,54.625
24.849,30,-140.062,-21.500,-7.875,-9.250,-10.875,-9.500,-1.510,-8.470,5.830,-0.100,-0.540,0.220,-1.390,-7.930,5.590,335.750,-8.125,54.813
24.89,30,-140.062,-21.500,-7.875,-13.062,2.375,-6.438,-1.800,-8.400,5.410,-0.430,-0.440,-0.140,-1.360,-7.980,5.530,335.938,-8.000,55.250
24.911,30,-140.562,-22.750,-8.250,-11.063,1.063,-3.813,-1.310,-7.820,5.540,0.050,0.170,0.050,-1.360,-8.000,5.490,336.000,-8.000,55.500
24.941,30,-140.562,-22.750,-8.250,-15.500,5.688,-10.875,-1.200,-8.480,5.220,0.130,-0.420,-0.200,-1.330,-8.050,5.420,336.375,-7.813,56.000
24.963,30,-139.750,-22.250,-8.063,-22.687,9.375,-7.188,-1.180,-7.830,5.200,0.140,0.260,-0.150,-1.330,-8.100,5.350,336.625,-7.750,56.500
25.008,30,-140.062,-21.750,-9.750,-15.688,6.063,-9.938,-1.540,-8.540,4.850,-0.110,-0.570,-0.400,-1.290,-8.200,5.210,337.125,-7.563,57.500
25.032,30,-140.062,-21.750,-9.750,-14.250,3.438,-1.500,-1.310,-8.430,4.890,-0.010,-0.200,-0.280,-1.290,-8.220,5.170,337.250,-7.563,57.750
25.055,30,-140.062,-20.000,-9.000,-9.438,2.813,-0.188,-1.240,-8.330,5.120,0.050,-0.080,-0.010,-1.300,-8.240,5.140,337.250,-7.563,58.000
25.077,30,-140.062,-20.000,-9.000,-7.188,7.375,0.313,-1.610,-8.780,5.320,-0.300,-0.520,0.200,-1.320,-8.260,5.100,337.312,-7.750,58.250
25.121,30,-138.875,-22.188,-9.750,-1.688,5.750,4.813,-1.410,-8.270,4.740,-0.030,0.000,-0.330,-1.380,-8.270,5.080,337.187,-8.063,58.375
25.148,30,-140.375,-22.188,-9.000,-5.938,1.188,2.625,-1.550,-8.310,4.900,-0.160,-0.030,-0.160,-1.380,-8.270,5.060,337.187,-8.125,58.500
25.169,30,-140.375,-22.188,-9.000,-10.938,3.688,1.875,-1.720,-8.360,4.800,-0.320,-0.060,-0.230,-1.410,-8.300,5.010,337.125,-8.250,58.875
25.212,30,-140.000,-21.375,-7.750,-4.250,5.625,6.250,-1.350,-8.150,4.670,0.110,0.160,-0.300,-1.470,-8.310,4.980,336.937,-8.563,59.063
25.238,30,-140.000,-21.375,-7.750,0.063,1.625,6.500,-1.470,-8.270,4.380,0.010,0.030,-0.590,-1.490,-8.310,4.980,336.812,-8.750,59.000
25.259,30,-138.875,-21.063,-8.563,-1.375,-3.813,3.063,-1.710,-8.790,5.030,-0.150,-0.340,0.130,-1.500,-8.310,4.970,336.625,-8.813,59.063
25.283,30,-138.875,-21.063,-8.563,2.813,2.875,3.563,-1.610,-8.410,4.580,-0.090,-0.100,-0.390,-1.520,-8.300,4.980,336.625,-8.875,59.000
25.326,30,-138.563,-21.375,-7.500,-2.875,1.563,-1.000,-1.720,-8.680,5.090,-0.190,-0.370,0.110,-1.520,-8.300,4.980,336.625,-8.938,59.063
25.35,30,-139.250,-21.375,-8.563,-1.938,2.688,0.563,-1.580,-8.540,4.630,-0.050,-0.230,-0.330,-1.530,-8.310,4.970,336.625,-9.000,59.125
25.372,30,-139.250,-21.375,-8.563,-4.500,0.375,0.063,-1.570,-8.630,4.620,-0.040,-0.300,-0.320,-1.530,-8.320,4.950,336.625,-9.000,59.250
25.409,30,-138.563,-21.063,-8.563,-1.375,-3.313,-2.750,-1.600,-8.700,4.920,-0.080,-0.370,-0.010,-1.520,-8.330,4.930,336.625,-8.875,59.313
25.453,30,-138.875,-21.063,-7.688,-0.938,0.938,1.250,-1.680,-8.460,4.690,-0.150,-0.120,-0.220,-1.530,-8.330,4.920,336.562,-9.000,59.375
25.478,30,-138.875,-21.063,-7.688,-1.563,-0.063,-1.000,-1.580,-8.500,4.650,-0.040,-0.160,-0.260,-1.530,-8.340,4.910,336.625,-8.938,59.500
25.502,30,-138.187,-21.375,-9.688,-1.250,-2.625,-1.438,-1.620,-8.350,4.770,-0.090,0.000,-0.130,-1.520,-8.340,4.910,336.562,-8.938,59.500
25.523,30,-138.187,-21.375,-9.688,-2.125,-3.250,-3.063,-1.750,-8.500,4.880,-0.230,-0.150,-0.010,-1.510,-8.350,4.900,336.625,-8.875,59.563
25.568,30,-138.563,-19.563,-7.688,-4.750,-1.688,-3.625,-1.690,-8.460,4.720,-0.190,-0.080,-0.140,-1.500,-8.370,4.860,336.625,-8.750,59.813
25.592,30,-138.563,-19.563,-7.688,-7.125,-0.875,-5.375,-1.570,-8.710,4.710,-0.090,-0.310,-0.130,-1.480,-8.390,4.840,336.750,-8.625,60.000
25.613,30,-138.875,-20.375,-8.563,-2.125,-1.375,-2.313,-1.840,-8.780,5.200,-0.360,-0.380,0.360,-1.470,-8.400,4.830,336.750,-8.625,60.062
25.66,30,-140.000,-21.063,-7.750,4.125,16.000,-11.250,-1.410,-7.740,4.090,0.070,0.650,-0.740,-1.460,-8.400,4.840,337.250,-8.563,60.000
25.684,30,-140.000,-21.063,-7.750,-0.188,-9.313,-13.687,-1.060,-8.600,5.710,0.350,-0.190,0.860,-1.410,-8.400,4.850,337.312,-8.313,60.000
25.708,30,-139.688,-19.188,-7.375,10.375,2.125,-3.063,-1.330,-8.660,4.180,0.060,-0.260,-0.680,-1.400,-8.390,4.870,337.375,-8.188,59.688
25.732,30,-139.688,-19.188,-7.375,10.813,-2.188,1.375,-1.580,-8.590,5.510,-0.220,-0.500,0.590,-1.400,-8.360,4.910,337.437,-8.250,59.500
25.775,30,-138.875,-21.063,-7.750,15.438,13.000,4.938,-1.410,-7.620,4.580,0.060,0.670,-0.410,-1.470,-8.300,4.990,337.562,-8.625,58.938
25.801,30,-138.875,-20.688,-7.375,35.563,10.438,-6.063,-1.710,-9.350,4.900,-0.230,-1.110,-0.190,-1.480,-8.240,5.100,337.875,-8.688,58.187
25.822,30,-138.875,-20.688,-7.375,28.438,13.000,3.938,-1.580,-8.940,5.380,0.210,0.040,-0.680,-1.520,-8.160,5.210,338.125,-9.000,56.937
25.858,30,-138.500,-22.188,-8.188,44.250,-3.688,-0.438,-1.940,-7.210,5.230,-0.400,0.810,-0.170,-1.540,-8.030,5.410,338.188,-9.000,56.000
25.902,30,-138.563,-23.250,-9.000,63.438,-27.750,-6.250,-1.720,-6.800,6.350,-0.280,0.950,0.540,-1.430,-7.760,5.810,338.375,-8.375,53.187
25.923,30,-138.563,-23.250,-9.000,94.375,-33.937,-21.813,-1.630,-7.360,4.940,0.130,0.770,0.540,-1.250,-7.510,6.170,338.687,-7.313,50.563
25.947,30,-138.563,-23.250,-9.000,84.438,-46.125,-24.375,-1.440,-7.610,8.400,-0.340,-0.270,1.990,-1.100,-7.340,6.400,338.937,-6.438,48.875
25.968,30,-138.875,-25.063,-11.000,73.187,18.750,-33.250,-0.790,-7.360,7.720,0.240,-0.190,1.120,-1.030,-7.170,6.600,339.687,-6.063,47.313
26.013,30,-140.000,-28.250,-10.250,71.188,46.125,-35.063,-1.020,-5.630,8.660,0.070,1.960,2.160,-1.090,-6.800,6.970,342.625,-6.375,44.250
26.037,30,-140.000,-28.250,-10.250,97.563,118.000,-66.250,-1.300,-7.320,5.350,-0.080,-0.710,-1.790,-1.210,-6.600,7.140,344.812,-7.125,42.688
26.06,30,-139.250,-27.750,-10.688,72.625,96.250,-52.875,-1.580,-7.690,6.380,-0.240,-1.250,-0.880,-1.340,-6.430,7.270,346.812,-7.875,41.500
26.104,30,-137.063,-31.688,-12.188,62.375,31.313,-51.312,-1.280,-7.540,7.060,0.130,-1.390,-0.440,-1.410,-6.150,7.500,350.250,-8.188,38.813
26.125,30,-137.063,-31.688,-12.188,59.875,18.563,-48.313,-0.780,-6.010,7.540,0.530,-0.050,-0.130,-1.320,-5.950,7.670,351.312,-7.750,37.813
26.15,30,-137.063,-31.688,-12.188,122.750,-31.500,-66.375,-0.550,-4.950,9.610,0.580,0.770,1.740,-1.140,-5.720,7.870,352.437,-6.688,36.000
26.171,30,-136.187,-32.875,-12.750,154.437,-10.562,-84.938,-2.360,-7.550,6.280,-1.420,-2.200,-1.880,-0.940,-5.340,8.160,354.813,-5.000,31.813
26.215,30,-137.187,-38.063,-13.250,112.937,-39.563,-38.313,-1.210,-5.290,8.720,-0.520,-0.330,0.000,-0.520,-4.500,8.690,356.062,-3.063,27.313
26.241,30,-137.187,-38.063,-13.250,85.375,-9.500,-16.125,-0.640,-4.650,8.600,-0.170,-0.410,-0.220,-0.460,-4.240,8.830,356.437,-2.688,25.625
26.263,30,-137.250,-41.688,-9.750,107.375,-13.687,-13.062,-0.090,-2.560,10.590,0.300,1.370,1.610,-0.400,-3.760,9.040,356.938,-2.313,22.563
26.295,30,-137.250,-41.688,-9.750,114.500,65.438,-32.938,-0.650,-4.390,8.140,-0.110,-0.980,-1.030,-0.530,-3.400,9.180,358.312,-3.563,19.250
26.337,30,-137.500,-45.062,-7.750,101.125,47.813,-33.063,-1.550,-3.140,8.220,-0.670,-0.520,-1.180,-0.870,-2.620,9.400,0.125,-5.125,15.563
26.361,30,-135.875,-46.750,-5.063,56.750,71.563,-46.688,-2.220,-4.880,8.220,-1.150,-2.450,-1.210,-1.070,-2.420,9.440,1.250,-6.250,14.375
26.385,30,-135.875,-46.750,-5.063,50.875,43.187,-20.250,-0.790,-2.710,5.310,0.260,-0.170,-2.970,-1.220,-2.220,9.470,2.125,-7.125,13.188
26.429,30,-132.875,-48.563,-5.000,95.750,-78.187,-4.188,-0.710,-0.320,11.200,0.040,1.410,1.580,-0.760,-1.730,9.620,2.313,-4.438,10.188
26.455,30,-133.562,-50.188,-3.500,89.750,-35.812,-37.500,-0.890,-1.650,11.500,-0.300,-0.210,1.820,-0.580,-1.430,9.680,2.750,-3.438,8.375
26.476,30,-133.562,-50.188,-3.500,73.438,7.813,-54.750,-0.930,-1.700,11.400,-0.030,1.100,2.810,-0.570,-1.080,9.720,4.375,-3.375,6.313
26.5,30,-133.562,-50.188,-3.500,68.375,35.625,-54.938,-0.650,-0.880,8.690,0.080,0.020,-1.040,-0.730,-0.900,9.730,5.625,-4.250,5.250
26.541,30,-135.375,-52.875,-0.500,78.688,-23.875,-13.250,-0.320,-1.770,6.390,0.560,-1.280,-3.350,-0.890,-0.490,9.750,7.625,-5.250,2.875
26.564,30,-131.687,-53.187,0.000,66.250,-58.500,19.063,-1.550,0.860,8.080,-0.820,1.120,-1.680,-0.730,-0.250,9.770,7.313,-3.500,0.938
26.588,30,-131.687,-53.187,0.000,49.063,-93.625,-11.187,0.430,-0.270,11.890,0.710,-0.250,2.090,-0.280,-0.010,9.800,7.813,-1.625,0.063
26.612,30,-133.062,-54.688,2.375,25.313,-61.750,-55.375,-0.480,-0.300,12.690,-0.450,-0.390,2.880,-0.020,0.090,9.800,8.938,-0.125,-0.500
26.655,30,-134.562,-55.500,3.688,26.750,18.875,-31.063,-0.480,-1.160,5.930,-0.370,-1.400,-3.870,-0.110,0.230,9.800,10.625,-0.625,-1.375
26.676,30,-134.562,-55.500,3.688,14.250,-29.938,-0.563,2.020,1.290,6.940,2.070,1.000,-2.850,0.030,0.290,9.800,10.813,0.188,-1.688
26.7,30,-134.562,-55.500,3.688,13.375,-64.625,-2.313,0.930,0.660,10.060,0.780,0.340,0.260,0.240,0.410,9.790,10.688,1.375,-2.438
26.721,30,-132.375,-55.875,7.063,65.813,-43.187,3.750,-0.580,-0.180,10.560,-1.000,-0.800,0.780,0.410,0.620,9.770,10.500,2.438,-3.625
26.773,30,-133.187,-54.750,8.750,14.500,10.688,32.500,0.210,3.220,13.890,-0.340,2.320,4.150,0.550,0.900,9.740,9.250,3.250,-5.250
26.798,30,-133.187,-54.750,8.750,-29.688,65.250,-26.563,0.410,2.140,11.410,0.030,1.290,1.650,0.370,0.840,9.760,9.688,1.750,-4.563
26.819,30,-132.875,-56.188,10.500,-18.125,-1.938,-10.313,0.800,2.120,14.460,0.500,1.370,4.690,0.290,0.740,9.770,9.813,1.688,-4.375
26.844,30,-132.875,-56.188,10.500,-18.438,91.750,-42.313,0.150,-0.450,7.980,0.110,-1.150,-1.790,0.030,0.700,9.780,10.375,0.188,-4.063
26.886,30,-132.250,-56.375,10.688,-15.875,-43.250,42.313,-0.010,1.160,6.830,0.080,0.550,-2.950,-0.090,0.600,9.780,9.250,0.000,-3.188
26.91,30,-131.500,-52.875,10.063,-58.000,-48.625,42.813,-1.370,-1.530,9.880,-1.450,-1.990,0.090,0.170,0.310,9.790,8.313,0.938,-1.813
26.932,30,-131.500,-52.875,10.063,-63.688,-64.625,52.438,2.240,2.190,12.410,1.850,2.110,2.610,0.390,0.080,9.790,7.188,2.250,-0.500
26.957,30,-132.187,-52.875,10.688,-53.125,-19.500,-4.125,-0.060,0.050,12.690,-0.560,0.140,2.890,0.500,-0.090,9.790,7.063,2.875,0.500
26.998,30,-132.187,-52.875,10.688,-49.813,37.000,-3.875,0.470,-0.110,9.960,0.120,0.330,0.170,0.340,-0.440,9.790,7.500,2.000,2.625
27.019,30,-134.000,-52.750,8.250,-51.688,31.750,-17.375,0.520,-1.090,8.620,-0.040,-0.680,-1.070,0.200,-0.700,9.770,7.938,1.188,4.063
27.043,30,-134.000,-52.750,8.250,-40.938,7.000,-11.313,-0.420,-1.130,8.930,-0.610,-0.280,-0.830,0.180,-0.840,9.760,8.125,1.063,4.938
27.066,30,-133.562,-51.375,8.000,-24.562,13.188,-8.875,-0.240,-1.690,7.370,-0.380,-0.760,-2.380,0.140,-0.920,9.760,8.438,0.813,5.438
27.11,30,-132.500,-51.375,8.000,7.625,-29.938,8.750,0.300,-1.430,8.920,0.040,-0.490,-0.830,0.250,-0.930,9.750,8.125,1.813,5.188
27.131,30,-132.500,-51.375,8.000,38.688,-34.438,12.437,0.710,0.130,10.540,0.310,0.880,0.770,0.400,-0.750,9.760,7.875,2.375,4.375
27.157,30,-134.250,-51.375,7.500,52.438,-5.625,-3.313,-0.140,-1.180,9.410,-0.580,-0.600,-0.360,0.430,-0.580,9.770,7.875,2.500,3.375
27.178,30,-134.250,-51.375,7.500,61.500,-9.313,0.375,0.400,-0.300,10.390,-0.060,0.080,0.600,0.460,-0.380,9.780,7.938,2.750,1.625
27.229,30,-133.875,-53.563,8.688,-8.125,-3.375,0.938,0.190,-0.810,8.120,-0.310,-0.890,-1.180,0.450,-0.110,9.790,8.313,2.625,0.625
27.254,30,-133.875,-53.563,8.688,-7.563,-18.063,8.938,0.400,-0.690,9.030,0.350,0.140,0.150,0.510,-0.120,9.790,8.125,3.000,0.688
27.275,30,-133.750,-53.563,9.500,-9.500,-19.625,4.500,0.630,-0.680,9.330,0.040,-0.530,-0.450,0.580,-0.140,9.780,8.000,3.438,0.813
27.32,30,-133.750,-53.187,9.875,-15.438,-31.000,20.750,0.770,-0.330,10.320,-0.080,-0.180,0.360,0.820,-0.270,9.760,7.125,4.813,1.563
27.344,30,-133.750,-53.187,9.875,-12.938,-16.500,22.938,0.680,-0.970,9.460,-0.190,-0.650,-0.300,0.880,-0.320,9.760,6.688,5.125,1.875
27.367,30,-134.562,-52.375,9.875,-9.063,-24.250,28.875,0.890,0.250,10.180,-0.050,0.620,0.430,0.950,-0.360,9.750,5.938,5.750,2.188
27.391,30,-134.562,-52.375,9.875,0.688,-14.000,8.188,1.190,0.460,11.220,-0.640,-0.280,0.720,1.000,-0.370,9.740,5.875,5.875,2.125
27.434,30,-135.250,-52.063,9.063,0.188,23.500,-2.625,0.620,-0.620,8.130,-0.240,-0.250,-1.620,0.870,-0.360,9.760,6.125,5.125,2.125
27.46,30,-135.562,-51.000,8.250,-14.563,8.375,-1.875,0.510,-1.670,7.570,-0.310,-1.260,-2.180,0.830,-0.400,9.760,6.250,4.813,2.375
27.481,30,-135.562,-51.000,8.250,-14.563,-14.563,12.688,0.900,-0.140,9.460,0.030,0.310,-0.290,0.880,-0.490,9.750,5.938,5.125,2.875
27.505,30,-135.562,-51.000,8.250,-25.875,-10.125,6.063,0.580,-1.130,9.400,-0.200,-0.840,0.150,0.920,-0.580,9.740,5.813,5.375,3.375
27.546,30,-135.500,-51.688,8.688,-27.313,-1.625,11.438,0.760,-1.280,9.830,-0.240,-0.560,0.110,1.010,-0.720,9.720,5.063,5.875,4.250
27.569,30,-135.875,-51.375,8.250,-43.000,3.313,17.063,0.850,-1.400,9.220,-0.140,-0.540,-0.490,0.990,-0.850,9.710,4.688,5.750,5.500
27.593,30,-135.875,-51.375,8.250,-48.250,-0.375,17.188,0.730,-1.520,8.980,-0.260,-0.410,-0.700,0.990,-1.100,9.690,4.375,5.813,6.500
27.617,30,-135.875,-51.375,6.688,-57.813,-10.688,15.188,0.740,-2.430,9.040,-0.280,-1.120,-0.610,1.030,-1.310,9.660,4.125,6.000,7.688
27.661,30,-135.750,-47.688,8.250,-81.188,-30.875,26.688,1.570,-1.410,10.270,0.390,0.430,0.720,1.170,-1.840,9.550,3.000,6.875,10.875
27.682,30,-135.750,-47.688,8.250,-72.438,-21.625,10.438,1.040,-3.440,10.500,-0.190,-1.360,1.000,1.260,-2.180,9.470,2.688,7.375,12.938
27.711,30,-137.187,-48.375,6.688,-30.125,-13.875,37.563,1.120,-2.630,9.660,-0.160,-0.320,0.220,1.290,-2.300,9.440,1.688,7.563,14.000
27.733,30,-137.187,-48.375,6.688,-28.750,-6.563,25.187,1.010,-1.960,8.270,-0.270,-0.030,-1.210,1.300,-2.440,9.400,1.313,7.563,14.563
27.777,30,-139.000,-44.750,6.500,-4.563,-25.375,22.625,1.300,-2.230,9.940,-0.110,0.310,0.580,1.410,-2.550,9.360,0.563,8.313,15.250
27.803,30,-139.000,-44.750,6.500,17.625,-17.563,17.688,1.180,-1.690,9.330,-0.270,0.820,-0.030,1.460,-2.520,9.360,0.000,8.625,14.875
27.824,30,-137.563,-45.500,7.375,15.750,-6.375,1.438,1.180,-3.340,7.840,-0.460,-0.680,-1.790,1.490,-2.450,9.370,359.938,8.750,14.625
27.849,30,-137.563,-45.500,7.375,-10.500,-13.687,4.375,1.350,-2.500,8.420,-0.170,-0.030,-0.940,1.520,-2.470,9.360,359.812,8.938,14.750
27.891,30,-138.250,-44.375,5.688,-0.063,-14.188,9.500,1.860,-1.970,9.100,0.230,0.530,-0.230,1.620,-2.500,9.340,359.500,9.625,15.000
27.916,30,-138.187,-45.188,5.688,4.813,-12.688,2.000,1.660,-2.420,9.370,0.020,-0.520,-0.270,1.680,-2.490,9.330,359.437,9.875,14.938
27.937,30,-138.187,-45.188,5.688,-0.625,-15.188,8.125,1.420,-3.360,8.820,-0.290,-0.870,-0.500,1.720,-2.480,9.320,359.250,10.063,14.875
27.963,30,-138.500,-43.000,8.563,-6.188,-15.563,13.125,1.660,-2.480,9.310,-0.090,0.020,0.000,1.760,-2.500,9.310,359.000,10.313,15.000
28.004,30,-138.500,-43.000,8.563,-17.313,-3.688,-8.375,1.550,-2.960,9.050,-0.260,-0.390,-0.230,1.810,-2.560,9.280,359.000,10.688,15.563
28.025,30,-139.063,-42.375,7.188,-16.438,-0.750,-7.625,1.300,-2.600,9.170,-0.180,-0.570,-0.230,1.830,-2.630,9.260,359.187,10.750,15.875
28.05,30,-139.063,-42.375,7.188,-9.813,-10.875,-2.688,1.540,-3.360,9.530,-0.320,-0.690,0.280,1.860,-2.670,9.240,359.312,10.938,16.125
28.072,30,-139.750,-44.563,7.500,-8.000,-8.000,6.250,1.580,-2.380,9.970,-0.300,0.310,0.730,1.880,-2.700,9.230,359.187,11.063,16.375
28.116,30,-139.000,-42.000,7.563,-15.313,22.625,-5.500,2.290,-3.270,8.000,0.480,-0.500,-1.230,1.780,-2.790,9.220,359.375,10.438,16.813
28.137,30,-139.000,-42.000,7.563,-10.562,3.375,6.500,1.760,-2.920,8.850,0.000,-0.100,-0.360,1.770,-2.810,9.220,359.312,10.375,16.938
28.17,30,-137.875,-43.750,7.188,2.313,-2.875,11.000,1.550,-3.200,8.750,-0.200,-0.390,-0.470,1.750,-2.810,9.220,359.000,10.375,16.938
28.216,30,-137.875,-42.500,5.250,-8.500,8.250,-7.375,1.330,-3.560,8.860,-0.440,-0.710,-0.350,1.780,-2.840,9.210,358.875,10.313,17.188
28.237,30,-137.875,-42.500,5.250,0.063,10.063,1.563,1.300,-2.500,9.240,-0.430,0.350,0.020,1.740,-2.860,9.210,358.812,10.188,17.250
28.264,30,-138.187,-42.875,6.063,-1.813,6.000,-7.438,1.550,-3.140,8.840,-0.170,-0.270,-0.370,1.730,-2.870,9.210,358.812,10.125,17.250
28.285,30,-138.187,-42.875,6.063,6.375,6.250,-3.500,1.600,-3.140,8.840,-0.110,-0.280,-0.370,1.710,-2.840,9.220,358.938,10.000,17.125
28.328,30,-137.875,-43.187,5.563,-2.188,8.938,-22.188,1.530,-4.410,9.010,-0.150,-1.590,-0.220,1.690,-2.810,9.230,359.437,9.875,16.938
28.355,30,-137.875,-43.187,5.563,-7.063,15.438,4.000,1.740,-2.700,8.620,0.100,0.130,-0.610,1.640,-2.840,9.240,359.562,9.625,17.063
28.376,30,-136.687,-40.250,6.063,-7.750,13.000,4.938,1.920,-2.700,8.450,0.490,-0.240,-0.700,1.570,-2.870,9.240,359.500,9.250,17.250
28.4,30,-136.687,-40.250,6.063,7.063,7.000,5.063,1.710,-2.680,8.700,0.160,0.180,-0.540,1.540,-2.860,9.250,359.437,9.063,17.188
28.442,30,-136.000,-42.500,4.875,33.625,-6.875,8.313,1.050,-2.430,9.590,-0.480,0.290,0.300,1.530,-2.730,9.290,359.000,9.063,16.063
28.467,30,-136.375,-42.063,4.063,27.875,-0.188,2.375,0.860,-3.100,9.380,-0.670,-0.460,0.060,1.540,-2.640,9.310,358.875,9.000,15.563
28.488,30,-136.375,-42.063,4.063,18.563,1.313,4.375,1.490,-3.270,9.020,-0.040,-0.730,-0.320,1.530,-2.540,9.340,358.812,8.938,15.188
28.513,30,-136.375,-42.063,4.063,33.250,8.250,1.813,1.710,-2.600,8.510,0.200,-0.170,-0.860,1.500,-2.430,9.370,358.812,8.813,14.563
28.554,30,-136.375,-43.187,5.250,25.938,-3.438,-8.000,1.210,-2.690,8.890,-0.300,-0.450,-0.520,1.520,-2.240,9.420,358.750,8.938,13.375
28.576,30,-135.562,-42.063,4.875,12.250,-11.438,-6.125,1.370,-1.870,8.160,-0.180,0.310,-1.260,1.580,-2.170,9.430,358.938,9.313,12.938
28.6,30,-135.562,-42.063,4.875,3.500,-19.250,-27.438,1.560,-3.490,8.490,-0.100,-1.340,-0.920,1.660,-2.150,9.420,359.437,9.750,12.813
28.632,30,-136.000,-45.375,4.375,-17.063,-26.688,-0.500,1.460,-1.700,8.320,-0.320,0.470,-1.070,1.780,-2.170,9.390,359.562,10.813,13.188
28.678,30,-136.000,-43.063,3.563,1.625,-38.250,-0.813,1.980,-1.610,10.520,-0.280,1.310,1.110,2.070,-2.200,9.320,359.500,12.188,13.250
28.702,30,-136.000,-43.063,3.563,22.875,-9.563,-4.313,1.650,-2.450,9.350,-0.460,-0.300,0.020,2.120,-2.140,9.330,359.375,12.437,12.938
28.725,30,-136.375,-44.188,4.875,30.313,-2.875,-14.250,1.860,-3.370,9.730,-0.270,-1.320,0.390,2.140,-2.040,9.340,359.625,12.563,12.063
28.749,30,-136.375,-44.188,4.875,29.063,7.000,2.875,1.890,-1.420,9.340,-0.210,0.490,-0.040,2.100,-1.910,9.380,359.500,12.375,11.500
28.793,30,-136.375,-45.687,5.250,26.437,10.875,5.750,1.750,-1.800,9.290,-0.260,-0.050,-0.130,2.020,-1.740,9.430,359.250,11.875,10.438
28.819,30,-136.250,-45.250,4.375,33.750,-0.250,-12.500,1.930,-2.150,8.530,-0.070,-0.500,-0.920,2.000,-1.640,9.450,359.312,11.812,9.500
28.84,30,-136.250,-45.250,4.375,28.563,-7.438,-15.438,1.960,-2.240,9.310,-0.070,-0.730,-0.150,2.040,-1.500,9.470,359.562,12.000,9.000
28.865,30,-136.250,-45.250,4.375,-4.250,0.063,2.438,1.830,-2.030,9.460,-0.200,-0.530,0.000,2.040,-1.490,9.470,359.500,12.000,8.938
28.906,30,-134.375,-47.000,4.875,-3.750,-9.688,-18.063,1.770,-2.190,9.700,-0.320,-0.640,0.240,2.100,-1.540,9.450,359.938,12.313,9.250
28.928,30,-134.062,-48.500,4.375,11.563,-2.188,-1.000,1.930,-1.810,9.550,-0.180,-0.290,0.090,2.110,-1.490,9.450,0.000,12.437,9.000
28.952,30,-134.062,-48.500,4.375,11.375,4.875,-1.563,2.030,-1.380,9.460,-0.060,0.070,0.000,2.090,-1.460,9.460,0.063,12.313,8.750
28.995,30,-134.375,-48.375,5.500,-7.375,-22.125,6.500,2.410,-2.030,9.240,0.250,-0.570,-0.200,2.150,-1.460,9.450,359.938,12.688,8.750
29.02,30,-134.250,-47.688,3.500,-11.625,-21.500,10.875,2.130,-2.090,9.810,-0.080,-0.600,0.380,2.210,-1.490,9.430,359.562,13.188,9.188
29.041,30,-134.250,-47.688,3.500,-12.375,-13.813,20.438,1.780,-1.000,9.430,-0.480,0.570,0.020,2.270,-1.570,9.400,359.187,13.375,9.500
29.066,30,-134.250,-47.688,3.500,-35.313,-40.375,-7.938,2.030,-2.310,7.950,-0.330,-0.650,-1.410,2.370,-1.650,9.370,359.250,13.938,10.000
29.114,30,-134.687,-46.188,4.688,-3.063,-11.750,-8.188,2.190,-2.850,10.350,-0.370,-1.160,1.040,2.560,-1.680,9.310,359.187,15.125,10.250
29.136,30,-135.375,-47.250,4.750,-3.563,17.625,6.875,2.410,-1.730,8.630,-0.090,-0.050,-0.690,2.510,-1.680,9.320,359.125,14.813,10.188
29.161,30,-135.375,-47.250,4.750,5.000,7.438,-2.250,2.380,-0.260,8.240,-0.090,1.410,-1.080,2.470,-1.680,9.330,359.250,14.625,10.125
29.182,30,-135.375,-46.750,4.000,8.063,-10.625,-29.188,2.530,-2.150,9.270,0.000,-0.520,-0.050,2.530,-1.620,9.330,359.812,14.938,9.875
29.227,30,-135.000,-48.000,4.000,-10.313,1.000,-5.313,2.050,-2.580,8.800,-0.510,-0.940,-0.510,2.560,-1.630,9.320,0.313,15.125,9.938
29.251,30,-135.000,-48.000,4.000,1.438,8.000,2.000,2.420,-2.230,8.560,-0.040,-0.810,-0.680,2.530,-1.650,9.320,0.250,14.938,10.000
29.275,30,-135.000,-48.000,3.563,-8.125,1.563,6.500,2.170,-0.600,7.880,-0.370,1.070,-1.430,2.550,-1.680,9.310,0.250,15.063,10.188
29.297,30,-135.000,-48.000,3.563,-17.500,-29.375,-14.688,2.870,-2.420,8.610,0.230,-0.710,-0.670,2.630,-1.710,9.280,0.563,15.938,10.625
29.342,30,-134.562,-48.688,4.750,-10.313,-40.062,0.063,2.640,-2.110,9.690,-0.280,-0.270,0.510,2.920,-1.840,9.170,0.500,17.313,11.313
29.367,30,-134.562,-48.688,4.750,14.813,-20.875,0.500,2.890,-1.830,9.370,-0.090,-0.040,0.200,2.990,-1.790,9.160,0.438,17.750,11.000
29.388,30,-135.187,-47.188,4.750,-1.438,-14.625,-8.250,3.110,-1.390,9.800,0.070,0.380,0.650,3.040,-1.770,9.140,0.500,18.063,10.938
29.412,30,-135.187,-47.188,4.750,-12.063,5.438,-4.500,2.970,-2.720,9.370,-0.070,-0.920,0.230,3.040,-1.800,9.140,0.625,18.000,11.313
29.453,30,-135.187,-47.562,4.750,11.563,11.688,0.625,2.270,-2.020,9.810,-0.680,-0.190,0.640,2.950,-1.820,9.160,0.500,17.500,11.250
29.477,30,-135.500,-47.188,4.000,11.313,29.250,0.500,2.890,-2.320,9.100,0.020,-0.550,-0.100,2.870,-1.760,9.200,0.563,17.000,10.875
29.501,30,-135.500,-47.188,4.000,-6.125,18.938,8.250,1.810,-1.660,9.090,-0.980,0.120,-0.130,2.760,-1.800,9.230,0.438,16.313,11.063
29.525,30,-134.750,-48.063,3.875,-18.813,20.500,1.250,3.190,-2.870,8.910,1.020,-1.220,-0.930,2.700,-1.880,9.230,0.438,16.000,11.500
29.581,30,-133.875,-47.250,4.688,30.375,28.688,-23.813,2.550,-2.320,8.120,0.040,-0.380,-1.150,2.490,-1.870,9.290,0.500,14.688,11.375
29.605,30,-133.875,-47.250,4.688,22.000,3.438,-14.938,2.140,-3.180,9.090,-0.350,-1.380,-0.210,2.490,-1.790,9.310,0.688,14.750,10.875
29.629,30,-133.562,-46.563,3.063,6.000,1.813,1.938,2.470,-1.610,10.000,-0.010,0.140,0.680,2.490,-1.760,9.310,0.688,14.688,10.813
29.653,30,-133.562,-46.563,3.063,-20.500,5.125,6.563,2.350,-2.800,8.980,0.000,-0.660,-0.820,2.460,-1.840,9.300,0.438,14.563,11.187
29.696,30,-133.187,-46.875,4.188,21.313,-17.438,18.563,2.850,-1.150,9.540,0.330,0.650,0.230,2.520,-1.800,9.300,359.562,14.875,10.938
29.722,30,-132.750,-47.250,3.875,3.875,-20.625,8.438,2.070,-2.200,10.040,-0.490,-0.420,0.750,2.570,-1.780,9.290,359.312,15.188,10.813
29.743,30,-132.750,-47.250,3.875,-15.688,-7.938,13.062,2.860,-2.530,10.170,0.360,-1.140,0.330,2.590,-1.860,9.270,358.875,15.313,11.313
29.787,30,-132.375,-48.375,3.875,18.813,-13.375,29.000,1.460,-1.460,7.330,-1.070,0.420,-1.940,2.540,-1.890,9.270,357.375,15.000,11.500
29.811,30,-132.375,-48.375,3.875,47.000,-31.250,0.688,2.450,-0.960,9.710,-0.170,0.810,0.440,2.630,-1.770,9.270,357.187,15.563,10.813
29.832,30,-134.250,-49.000,4.188,13.313,-13.313,-12.375,2.860,-2.430,9.640,0.160,-0.740,0.370,2.710,-1.700,9.260,357.312,16.000,10.375
29.856,30,-134.250,-49.000,4.188,-20.187,-1.375,3.875,1.840,-1.220,8.690,-0.850,0.530,-0.560,2.690,-1.750,9.260,357.250,15.938,10.750
29.9,30,-133.875,-46.750,5.063,7.125,1.563,14.188,2.660,-2.640,9.740,0.000,-0.910,0.470,2.660,-1.720,9.270,356.687,15.625,10.500
29.925,30,-133.562,-48.250,5.063,20.313,16.438,31.188,2.280,-1.540,8.540,-0.320,0.160,-0.750,2.600,-1.700,9.290,356.125,15.188,10.125
29.946,30,-133.562,-48.250,5.063,28.500,6.438,17.500,1.920,-0.630,9.150,-0.620,0.950,-0.170,2.550,-1.580,9.330,355.813,15.063,9.625
29.973,30,-134.875,-49.000,5.063,19.875,20.313,-15.438,2.370,-2.740,8.850,-0.140,-1.240,-0.500,2.510,-1.490,9.360,356.062,14.813,9.063
30.029,30,-133.750,-49.000,4.063,41.500,-8.750,-2.625,2.030,-1.710,9.410,-0.400,-0.580,-0.010,2.430,-1.120,9.430,355.875,14.375,6.813
30.054,30,-133.750,-49.000,4.063,33.375,0.188,5.875,1.980,-1.190,9.180,-0.450,-0.180,-0.250,2.430,-0.970,9.440,355.562,14.375,5.875
30.078,30,-134.062,-50.375,6.000,16.500,1.313,7.875,2.090,-2.440,7.960,0.290,-0.980,-1.710,2.430,-0.950,9.450,355.312,14.313,5.750
30.099,30,-134.062,-50.375,6.000,37.313,-18.188,15.688,2.400,-0.430,7.640,-0.060,0.460,-1.800,2.470,-0.900,9.440,354.937,14.563,5.438
30.144,30,-134.062,-48.875,5.875,60.750,-39.125,-8.938,2.840,-1.000,11.290,0.120,-0.450,1.880,2.750,-0.430,9.400,354.500,16.250,2.625
30.168,30,-134.062,-48.875,5.875,72.188,-0.063,-9.625,2.880,-0.110,10.320,0.050,0.400,-0.170,2.730,-0.200,9.410,354.500,16.188,1.250
30.189,30,-135.875,-50.062,6.563,41.875,-3.563,-11.187,2.310,-1.600,5.770,-0.400,-1.560,-3.640,2.720,-0.040,9.410,354.625,16.125,0.250
30.213,30,-135.875,-50.062,6.563,47.375,-82.625,8.750,2.700,0.940,7.310,-0.220,0.860,-2.040,2.920,0.080,9.350,354.312,17.313,-0.500
30.254,30,-133.562,-52.500,6.750,11.063,-16.125,-1.188,2.390,2.800,10.270,-1.000,2.480,1.080,3.420,0.330,9.180,354.437,20.438,-2.063
30.278,30,-136.063,-54.188,8.063,-9.500,-23.125,-46.563,2.750,2.570,9.030,-0.690,2.220,-0.130,3.500,0.360,9.150,355.625,20.875,-2.250
30.299,30,-136.063,-54.188,8.063,-1.375,-26.063,-80.000,3.270,-2.530,8.640,-0.280,-3.010,-0.480,3.560,0.470,9.120,357.125,21.250,-3.000
30.325,30,-134.375,-53.875,9.000,24.938,0.500,-47.750,4.380,-1.720,8.090,0.810,-2.340,-1.010,3.570,0.610,9.110,358.062,21.375,-3.813
30.366,30,-134.375,-53.875,9.000,-11.812,60.750,-6.750,3.460,-1.550,8.160,0.130,-2.240,-1.030,3.320,0.690,9.190,359.000,19.813,-4.250
30.387,30,-134.562,-52.250,8.750,27.062,107.875,43.125,3.970,-2.000,7.490,-0.170,0.410,-2.090,2.810,1.000,9.330,357.687,16.688,-6.125
30.411,30,-134.562,-52.250,8.750,111.937,48.750,52.875,0.000,6.130,8.840,-2.590,4.700,-0.500,2.580,1.430,9.340,356.187,15.250,-8.688
30.465,30,-131.750,-55.375,8.188,35.187,-4.500,-11.750,3.320,0.470,8.890,0.740,-1.310,-0.390,2.580,1.780,9.280,356.938,15.250,-10.875
30.486,30,-131.375,-56.500,10.188,50.250,6.188,23.875,2.750,1.690,8.800,0.170,-0.230,-0.450,2.560,2.000,9.240,356.125,15.125,-12.250
30.51,30,-131.375,-56.500,10.188,80.875,32.375,13.125,2.130,2.220,9.280,-0.300,-0.040,0.060,2.440,2.270,9.220,355.687,14.375,-13.813
30.534,30,-131.375,-56.688,11.187,126.688,87.875,-33.563,1.620,1.810,8.800,-0.550,-0.840,-0.370,2.170,2.650,9.180,355.813,11.750,-17.438
30.578,30,-130.750,-60.062,11.688,116.500,69.250,-24.375,0.870,4.200,9.140,-0.710,0.710,0.120,1.590,3.490,9.020,355.937,8.625,-22.000
30.6,30,-130.750,-60.062,11.688,84.688,58.500,-23.937,0.390,3.920,8.460,-0.880,0.020,-0.440,1.280,3.900,8.900,356.062,7.500,-23.625
30.626,30,-128.062,-61.500,13.250,71.813,29.688,-29.000,0.600,4.310,8.700,-0.530,0.180,-0.110,1.140,4.130,8.810,356.375,6.688,-25.063
30.647,30,-128.062,-61.500,13.250,56.625,22.313,-43.563,0.990,3.550,8.320,-0.020,-0.770,-0.410,0.950,4.410,8.700,357.312,5.563,-26.875
30.691,30,-127.000,-62.063,14.750,62.750,30.438,-9.813,0.560,4.710,8.460,-0.180,-0.060,-0.060,0.740,4.770,8.530,357.687,4.375,-29.250
30.716,30,-127.000,-62.063,14.750,48.375,24.063,3.688,-0.370,5.370,7.740,-1.050,0.440,-0.710,0.680,4.920,8.450,357.375,4.000,-30.187
30.737,30,-126.375,-63.500,16.000,54.688,12.250,-21.688,-0.600,5.380,7.790,-1.210,0.310,-0.570,0.580,5.150,8.320,357.813,3.375,-31.750
30.761,30,-126.375,-63.500,16.000,51.438,-5.563,-37.625,0.190,5.140,8.380,-0.330,-0.140,0.140,0.530,5.290,8.230,358.625,3.063,-32.687
30.805,30,-125.187,-66.563,16.188,19.438,2.313,-5.938,0.080,5.950,8.350,-0.370,0.480,0.230,0.450,5.460,8.120,359.562,2.625,-34.000
30.83,30,-124.375,-65.250,17.063,-2.250,-2.313,3.313,-0.170,4.040,4.380,-0.630,-1.430,-3.730,0.490,5.510,8.090,359.625,2.875,-34.250
30.851,30,-124.375,-65.250,17.063,62.250,-36.125,-25.750,-0.500,3.600,7.590,-0.970,-2.090,-0.370,0.470,5.690,7.970,0.750,2.750,-35.500
30.887,30,-126.063,-65.375,18.063,81.938,-47.438,-99.375,0.540,5.750,8.020,0.250,-0.270,0.290,0.290,6.020,7.720,5.125,1.563,-38.625
30.931,30,-123.500,-67.250,19.750,26.063,-16.500,-5.688,0.590,7.960,9.420,0.300,1.690,1.890,0.320,6.250,7.540,6.125,1.875,-39.625
30.953,30,-123.500,-67.250,19.750,8.750,25.500,13.188,-0.050,6.000,4.750,-0.380,-0.210,-2.810,0.320,6.220,7.570,5.625,1.875,-39.375
30.979,30,-123.000,-67.188,20.750,78.750,-15.938,-69.500,1.180,7.340,8.070,0.920,0.950,0.630,0.260,6.380,7.430,6.375,1.500,-40.625
31.0,30,-123.000,-67.188,20.750,42.000,-23.125,-60.625,0.110,2.970,5.170,0.170,-2.490,-1.190,0.120,6.550,7.290,8.313,0.688,-41.875
31.043,30,-122.500,-67.000,24.000,71.937,-16.250,-6.875,-0.170,5.220,6.410,-0.290,-1.580,-0.640,0.120,6.800,7.050,8.875,0.750,-43.938
31.069,30,-122.500,-67.000,24.000,52.250,-1.813,0.938,-0.080,7.210,6.940,-0.210,0.280,0.000,0.130,6.920,6.940,8.875,0.750,-44.875
31.09,30,-122.250,-67.562,25.000,17.000,-7.688,-5.500,-0.800,7.540,6.040,-1.360,0.810,-1.470,0.130,6.980,6.870,9.313,0.750,-45.438
31.114,30,-122.250,-67.562,25.000,-39.500,-68.375,-69.750,0.000,7.840,6.900,-0.130,0.920,-0.030,0.130,6.920,6.940,10.875,0.750,-44.875
31.157,30,-122.750,-68.000,27.750,-66.875,21.875,23.438,0.290,5.420,6.910,0.160,-1.190,-0.310,0.120,6.620,7.220,10.750,0.750,-41.813
31.182,30,-120.187,-67.375,25.688,-66.500,18.875,36.500,-0.650,5.900,6.570,-0.800,-0.540,-0.790,0.180,6.360,7.450,9.875,1.063,-40.438
31.203,30,-120.187,-67.375,25.688,-88.500,-9.813,42.375,0.500,6.620,8.040,0.220,0.500,0.390,0.270,6.120,7.650,9.250,1.563,-38.625
31.248,30,-120.687,-67.000,23.563,-81.313,-11.500,9.125,0.000,4.520,6.770,-0.320,-1.090,-1.250,0.320,5.610,8.030,8.688,2.125,-34.188
31.272,30,-120.687,-67.000,23.563,-65.563,-28.938,29.563,0.550,4.640,7.760,0.110,-0.760,-0.390,0.430,5.410,8.160,8.188,3.000,-32.875
31.293,30,-121.250,-65.375,20.875,-69.125,-28.750,49.563,0.140,4.880,8.530,-0.540,-0.220,0.190,0.680,5.110,8.330,7.500,4.000,-31.500
31.317,30,-121.250,-65.375,20.875,-87.438,-32.813,26.000,0.970,4.160,10.150,0.130,-0.700,1.680,0.830,4.860,8.470,7.125,4.875,-29.813
31.363,30,-122.687,-65.000,20.375,-118.313,-15.750,39.250,1.660,4.250,8.690,0.570,0.240,-0.180,1.080,4.010,8.880,5.938,6.313,-24.250
31.388,30,-122.687,-63.563,17.563,-130.750,-48.375,57.562,2.030,2.680,6.180,0.760,-0.900,-2.850,1.260,3.580,9.030,5.250,7.375,-21.625
31.412,30,-122.687,-63.563,17.563,-101.937,-102.250,85.000,0.250,3.130,11.440,-1.320,0.090,1.610,1.800,3.030,9.140,3.625,10.625,-18.375
31.436,30,-124.063,-61.750,13.875,-97.063,-59.875,66.375,1.360,2.680,10.270,-0.660,-0.020,1.070,2.020,2.710,9.200,2.813,11.875,-16.375
31.497,30,-127.750,-59.500,11.500,-57.125,7.000,19.063,1.390,2.200,8.630,-0.570,0.180,-0.760,1.970,2.010,9.390,1.500,11.563,-12.063
31.522,30,-127.750,-59.500,11.500,-47.750,-2.500,21.250,1.290,2.650,9.300,-0.680,0.810,-0.120,1.980,1.830,9.420,1.188,11.625,-11.000
31.543,30,-127.688,-58.750,10.188,-50.125,4.125,4.500,1.670,2.330,9.590,-0.050,-0.320,0.130,1.960,1.600,9.470,1.188,11.563,-9.563
31.567,30,-127.688,-58.750,10.188,-51.312,13.750,-1.750,1.500,-0.110,8.770,-0.410,-1.540,-0.730,1.910,1.430,9.510,1.375,11.250,-8.500
31.609,30,-126.563,-57.000,10.063,-46.750,-9.000,25.313,1.790,0.270,9.810,-0.150,-0.830,0.260,1.940,1.110,9.540,0.688,11.438,-6.125
31.634,30,-125.500,-56.500,8.688,-42.063,4.000,25.438,1.500,1.880,9.650,-0.440,0.920,0.090,1.950,0.950,9.560,0.375,11.375,-5.188
31.655,30,-125.500,-56.500,8.688,-55.125,8.063,4.625,1.920,1.340,9.340,0.000,0.640,-0.250,1.920,0.690,9.590,0.438,11.250,-4.125
31.68,30,-127.688,-54.500,7.875,-42.750,5.875,-3.063,1.860,0.600,9.640,-0.030,0.050,0.030,1.900,0.540,9.600,0.563,11.187,-3.250
31.721,30,-127.688,-54.500,7.875,-44.313,2.875,6.125,1.640,-0.150,8.670,-0.210,-0.430,-0.940,1.850,0.280,9.620,0.688,10.875,-1.625
31.743,30,-127.000,-53.250,6.375,-37.125,-3.375,12.875,1.590,-0.370,9.520,-0.270,-0.520,-0.090,1.860,0.070,9.620,0.438,10.938,-0.375
31.767,30,-127.000,-53.250,6.375,-45.000,-0.563,14.500,1.440,0.180,10.130,-0.410,0.270,0.500,1.860,-0.080,9.620,0.250,10.938,0.500
31.79,30,-127.062,-52.063,6.750,-42.875,12.250,2.500,1.560,0.100,9.940,-0.270,0.340,0.310,1.830,-0.230,9.630,0.250,10.750,1.313
31.839,30,-127.500,-50.062,5.875,-47.625,14.438,-6.313,1.710,-1.870,7.890,-0.010,-1.250,-1.730,1.720,-0.610,9.630,0.750,10.063,3.625
31.864,30,-127.500,-50.062,5.875,-37.563,-16.313,17.000,1.780,-1.460,8.900,0.020,-0.710,-0.710,1.790,-0.810,9.600,0.375,10.500,4.813
31.888,30,-127.062,-47.750,5.750,-39.750,-21.813,17.250,1.550,-0.860,9.890,-0.250,0.100,0.640,1.850,-0.970,9.580,0.125,10.875,5.750
31.911,30,-127.062,-47.750,5.750,-49.563,-4.500,7.438,1.580,-0.950,9.860,-0.280,0.180,0.310,1.870,-1.140,9.550,0.000,11.000,7.250
31.955,30,-127.062,-47.188,5.500,-21.750,8.375,1.688,1.570,-1.670,8.780,-0.230,-0.410,-0.830,1.830,-1.430,9.520,0.063,10.750,8.500
31.979,30,-127.062,-47.188,5.500,-43.750,0.500,4.250,1.490,-2.000,9.050,-0.290,-0.390,-0.450,1.840,-1.580,9.500,0.063,10.813,9.438
32.0,30,-127.500,-47.375,4.688,-48.000,-5.250,8.563,1.460,-1.770,9.270,-0.380,-0.010,-0.190,1.850,-1.750,9.460,0.000,10.875,10.438
32.026,30,-127.500,-47.375,4.688,-45.938,-5.813,4.000,1.640,-1.920,9.760,-0.210,-0.010,0.320,1.860,-1.900,9.430,359.938,11.000,11.812
32.067,30,-127.500,-44.250,2.563,-41.875,8.125,2.938,1.600,-2.520,8.370,-0.230,-0.280,-0.980,1.830,-2.240,9.360,0.000,10.750,13.438
32.091,30,-127.500,-43.500,2.688,-43.563,-4.688,7.438,1.670,-2.770,9.110,-0.170,-0.390,-0.210,1.840,-2.380,9.330,359.938,10.813,14.313
32.115,30,-127.500,-43.500,2.688,-41.875,-3.500,7.500,1.430,-2.330,8.740,-0.410,0.180,-0.550,1.850,-2.590,9.270,359.812,10.875,15.625
32.158,30,-127.500,-43.250,2.688,-43.438,-7.125,3.313,1.300,-3.280,9.220,-0.580,-0.400,0.040,1.890,-2.870,9.180,359.812,11.125,17.313
32.185,30,-128.562,-42.500,1.250,-40.625,-1.313,8.188,1.590,-3.330,9.220,-0.300,-0.330,0.080,1.890,-2.990,9.140,359.687,11.125,18.125
32.206,30,-128.562,-42.500,1.250,-42.875,4.375,7.313,1.730,-3.520,8.810,-0.140,-0.390,-0.280,1.860,-3.190,9.080,359.625,10.938,19.375
32.229,30,-128.562,-42.500,1.250,-38.750,0.625,12.188,1.600,-3.120,8.460,-0.250,0.130,-0.590,1.850,-3.320,9.030,359.437,10.875,20.187
32.27,30,-128.562,-40.500,0.500,-34.875,10.438,-3.500,1.580,-3.960,8.670,-0.260,-0.390,-0.270,1.850,-3.560,8.940,359.562,10.875,21.688
32.301,30,-127.750,-39.000,2.000,-38.438,9.375,3.250,1.690,-3.860,8.580,-0.100,-0.140,-0.300,1.800,-3.720,8.880,359.687,10.562,22.687
32.327,30,-127.750,-39.000,2.000,-43.625,11.875,2.750,1.590,-3.940,8.150,-0.170,-0.080,-0.690,1.760,-3.850,8.840,359.812,10.250,23.937
32.348,30,-127.750,-38.875,-0.063,-43.375,9.500,5.000,1.500,-4.520,7.670,-0.270,-0.080,-1.290,1.710,-4.040,8.760,359.750,10.063,24.750
32.393,30,-127.500,-37.687,1.000,-42.063,-2.375,5.188,1.450,-4.670,8.030,-0.260,-0.400,-0.620,1.720,-4.270,8.650,359.625,10.063,26.250
32.418,30,-127.500,-37.687,1.000,-47.938,-3.313,2.875,1.230,-4.720,8.400,-0.500,-0.230,0.020,1.720,-4.480,8.540,359.625,10.125,27.687
32.442,30,-129.000,-35.250,0.063,-48.000,-3.438,4.625,1.830,-4.530,9.020,0.090,0.080,0.540,1.730,-4.610,8.470,359.625,10.125,28.563
32.466,30,-129.000,-35.250,0.063,-40.125,1.938,5.250,1.890,-4.700,8.450,0.170,0.020,0.030,1.700,-4.790,8.380,359.625,10.000,29.688
32.51,30,-128.062,-35.187,0.250,-37.313,-2.250,-0.188,1.630,-5.100,7.910,-0.050,-0.110,-0.340,1.690,-4.990,8.260,359.750,9.938,31.125
32.536,30,-127.375,-33.563,0.188,-38.063,0.063,2.563,1.660,-5.460,7.380,-0.020,-0.360,-0.810,1.680,-5.100,8.200,359.750,9.875,31.875
32.557,30,-127.375,-33.563,0.188,-36.500,-4.375,2.750,1.620,-5.050,7.130,-0.060,0.150,-0.990,1.700,-5.260,8.090,359.750,9.938,33.000
32.581,30,-127.375,-33.563,0.188,-36.938,-9.938,2.125,1.830,-5.560,6.890,0.120,-0.250,-1.160,1.730,-5.350,8.030,359.687,10.125,33.688
32.621,30,-128.875,-33.188,0.063,-28.438,-12.437,3.438,1.100,-5.910,8.730,-0.660,-0.390,0.820,1.760,-5.510,7.910,359.562,10.375,34.813
32.645,30,-128.875,-31.500,-1.188,-38.188,15.250,2.875,1.500,-5.770,7.700,-0.200,-0.150,-0.140,1.710,-5.610,7.850,359.687,9.938,35.875
32.669,30,-128.875,-31.500,-1.188,-37.250,4.563,-0.500,1.980,-6.290,7.190,-0.130,-0.210,-0.300,1.690,-5.760,7.750,359.750,9.875,36.625
32.693,30,-128.875,-30.375,-0.875,-35.563,-0.125,4.375,1.450,-6.180,7.400,-0.230,-0.310,-0.270,1.680,-5.860,7.670,359.750,9.875,37.313
32.735,30,-128.875,-30.375,-0.875,-41.625,2.625,-1.625,1.520,-6.210,7.160,-0.140,-0.130,-0.340,1.670,-6.070,7.510,359.875,9.813,38.938
32.768,30,-127.688,-28.375,-0.563,-32.188,-2.000,0.938,1.320,-6.180,7.250,-0.340,0.020,-0.140,1.670,-6.250,7.360,0.000,9.813,40.313
32.792,30,-128.062,-27.563,-1.188,-33.563,-0.875,2.625,1.550,-6.650,6.930,-0.360,0.100,-0.050,1.660,-6.330,7.290,0.000,9.750,40.938
32.832,30,-128.062,-27.563,-1.188,-33.813,0.938,0.313,1.330,-6.330,7.210,0.000,-0.110,-0.270,1.650,-6.490,7.150,0.063,9.625,42.188
32.853,30,-127.250,-25.250,-0.063,-33.875,2.438,-1.313,1.220,-6.690,6.820,-0.410,-0.120,-0.260,1.640,-6.570,7.080,0.125,9.625,42.813
32.879,30,-127.250,-25.250,-0.063,-21.375,-1.625,3.563,1.020,-6.640,7.040,-0.610,0.000,0.010,1.630,-6.630,7.030,0.125,9.563,43.313
32.9,30,-129.062,-23.375,-1.500,-21.750,-11.438,0.313,1.520,-7.240,8.420,-0.260,-0.010,0.870,1.650,-6.710,6.950,0.063,9.688,44.000
32.943,30,-129.062,-24.375,-1.250,-31.188,26.188,6.063,1.490,-6.740,4.740,0.010,0.060,-1.670,1.510,-6.870,6.820,0.250,8.875,45.125
32.964,30,-129.062,-24.375,-1.250,-33.375,1.688,-1.688,1.730,-6.930,5.530,0.230,0.000,-1.210,1.500,-6.940,6.750,0.375,8.813,45.750
32.99,30,-128.750,-23.688,-2.188,-20.313,10.875,22.375,0.760,-5.940,7.450,-0.700,1.070,0.750,1.470,-7.010,6.690,0.188,8.625,46.312
33.011,30,-128.750,-23.688,-2.188,-28.875,20.875,13.000,1.110,-7.040,6.540,-0.260,-0.130,-0.280,1.350,-7.110,6.600,0.063,7.875,47.063
33.054,30,-128.375,-22.375,-1.500,-16.250,27.375,12.938,0.680,-7.480,6.000,-0.490,-0.280,-0.540,1.170,-7.200,6.550,0.063,6.813,47.688
33.08,30,-128.375,-22.375,-1.500,-9.875,36.813,20.750,0.800,-7.220,6.730,-0.230,0.010,0.200,1.040,-7.230,6.530,0.000,6.063,47.875
33.101,30,-127.188,-19.750,-1.563,0.250,4.500,14.500,1.040,-7.820,5.890,-0.230,-0.340,-0.370,0.960,-7.240,6.530,359.812,5.563,47.938
33.125,30,-127.188,-19.750,-1.563,-29.750,5.688,4.750,0.580,-7.070,6.650,-0.350,0.230,0.180,0.930,-7.310,6.460,359.875,5.438,48.500
33.167,30,-127.188,-20.375,-0.875,-48.250,38.063,57.125,0.240,-10.010,9.910,-0.500,-2.520,3.630,0.740,-7.490,6.280,358.812,3.063,50.125
33.202,30,-126.688,-21.000,-1.063,26.750,100.625,108.875,-0.800,-8.820,6.200,-0.840,1.540,4.450,-0.010,-7.520,6.280,357.687,-0.063,50.125
33.227,30,-126.688,-21.000,-1.063,-37.938,17.875,-15.125,1.070,-8.950,4.150,1.080,-1.350,-2.030,-0.010,-7.600,6.180,358.187,-0.063,50.813
33.25,30,-123.250,-19.000,-0.563,-39.250,5.750,-4.438,-0.170,-8.250,5.760,-0.150,-0.560,-0.320,-0.010,-7.680,6.090,358.437,-0.063,51.875
33.294,30,-122.187,-18.688,-0.250,-36.250,4.063,-2.875,0.200,-8.260,5.630,0.220,-0.430,-0.260,-0.010,-7.860,5.850,358.562,-0.063,53.313
33.315,30,-122.187,-18.688,-0.250,-33.312,0.188,-0.125,-0.220,-8.150,5.580,-0.210,-0.210,-0.170,-0.010,-7.930,5.760,358.562,-0.063,54.000
33.341,30,-122.562,-16.688,-0.750,-36.875,-4.625,3.188,-0.420,-8.640,4.890,-0.410,-0.640,-0.770,-0.010,-8.000,5.660,358.500,-0.063,54.625
33.382,30,-122.562,-16.688,-0.750,-36.563,-2.188,1.313,-0.200,-8.080,5.520,-0.190,0.040,0.040,-0.010,-8.130,5.480,358.250,-0.063,56.312
33.403,30,-123.500,-14.688,-1.688,-33.625,1.250,-1.000,-0.200,-8.420,5.320,-0.180,0.120,-0.060,-0.010,-8.220,5.340,358.312,-0.063,56.937
33.427,30,-123.500,-14.688,-1.688,-36.125,0.813,-0.625,-0.280,-8.500,4.880,-0.270,-0.210,-0.350,-0.010,-8.280,5.240,358.375,-0.063,57.625
33.45,30,-122.250,-14.063,1.375,-34.125,-2.125,0.563,-0.220,-8.690,4.930,-0.210,-0.350,-0.210,-0.010,-8.340,5.150,358.312,0.000,58.500
33.494,30,-122.875,-13.062,-0.563,-35.812,-4.750,2.188,-0.280,-8.980,4.580,-0.270,-0.520,-0.380,-0.010,-8.450,4.960,358.125,-0.063,59.813
33.515,30,-122.875,-13.062,-0.563,-28.438,-9.188,4.000,-0.020,-8.100,5.330,-0.010,0.420,0.490,0.000,-8.520,4.840,358.000,0.000,60.375
33.54,30,-122.875,-13.062,-0.563,-31.500,5.875,-2.688,-0.240,-8.570,4.560,-0.230,0.000,-0.180,0.000,-8.580,4.740,358.125,0.000,61.000
33.561,30,-123.187,-12.688,-0.688,-33.125,3.625,-1.688,-0.300,-8.830,4.240,-0.280,-0.190,-0.390,-0.010,-8.630,4.640,358.187,0.000,62.000
33.605,30,-122.062,-11.500,0.750,-28.500,-2.875,0.375,-0.310,-9.080,3.980,-0.300,-0.320,-0.420,0.000,-8.750,4.410,358.125,0.000,63.187
33.629,30,-122.062,-11.500,0.750,-28.688,-9.563,3.125,0.000,-8.560,4.920,0.000,0.230,0.590,0.000,-8.790,4.330,357.938,0.000,63.750
33.661,30,-122.687,-10.250,1.188,-27.625,5.063,-3.250,-0.120,-8.790,4.300,-0.120,0.060,0.100,0.000,-8.860,4.200,358.062,0.000,64.938
33.686,30,-122.687,-10.250,1.188,-30.000,7.250,-4.125,-0.200,-8.900,4.000,-0.210,0.000,-0.100,0.000,-8.920,4.060,358.250,0.000,65.500
33.726,30,-123.750,-9.063,1.875,-31.437,11.750,-5.875,-0.220,-9.310,2.910,-0.240,-0.310,-0.980,0.010,-8.990,3.890,358.687,0.063,66.563
33.751,30,-122.250,-7.875,2.563,-11.250,-8.500,-1.750,0.560,-9.900,2.070,0.530,-0.880,-1.770,0.030,-9.010,3.850,358.500,0.250,66.813
33.775,30,-122.250,-7.875,2.563,4.813,-48.250,-6.875,-1.000,-7.260,4.710,-0.610,2.420,1.250,0.180,-9.010,3.850,358.375,1.063,66.813
33.799,30,-123.062,-8.188,2.875,-12.625,-48.375,-79.437,1.130,-9.000,4.020,0.650,0.000,0.180,0.470,-9.010,3.830,359.375,2.750,66.875
33.841,30,-123.062,-8.188,2.875,122.312,-19.563,-122.875,0.450,-12.450,8.730,-0.720,-3.710,4.430,1.170,-8.730,4.290,2.000,6.875,63.750
33.862,30,-125.875,-8.375,3.188,173.812,40.438,-18.000,0.930,-14.150,3.180,-0.360,-5.690,-1.590,1.290,-8.460,4.780,2.750,6.938,58.812
33.886,30,-125.875,-8.375,3.188,131.375,40.000,81.625,-1.730,-7.450,1.780,-2.770,0.770,-3.440,1.040,-8.230,5.220,1.375,5.375,56.438
33.907,30,-127.375,-10.250,1.375,138.937,-28.125,54.125,1.030,-2.890,5.150,0.120,4.950,-0.640,0.910,-7.850,5.800,0.000,5.313,53.500
33.952,30,-126.375,-13.875,0.188,182.000,2.250,-163.625,4.180,-7.220,3.370,2.600,-0.230,-3.320,1.570,-6.980,6.700,3.875,10.375,43.875
33.976,30,-126.375,-13.875,0.188,244.687,-71.937,-138.250,3.130,-6.040,3.770,-0.870,-0.350,-0.300,2.300,-6.030,7.380,5.375,13.563,39.250
34.0,30,-128.500,-17.500,-1.250,153.312,-126.688,-152.625,2.620,-7.260,9.270,-0.270,-1.660,1.760,2.890,-5.600,7.510,7.125,17.125,36.688
34.042,30,-128.500,-17.500,-1.250,110.938,14.875,-125.312,3.610,-3.330,10.430,0.120,1.520,2.660,3.480,-4.850,7.770,10.562,20.812,32.000
34.063,30,-131.562,-25.875,-0.250,102.250,79.188,-142.562,4.090,-6.570,9.370,0.540,-2.180,1.360,3.540,-4.390,8.010,14.375,20.875,27.188
34.087,30,-131.562,-25.875,-0.250,120.875,77.125,-59.375,2.640,-6.220,7.670,-0.780,-2.240,-0.590,3.430,-3.980,8.270,15.000,20.000,24.438
34.12,30,-130.750,-29.563,-0.250,48.375,50.938,23.188,2.310,-2.540,7.970,-0.750,1.000,-0.630,3.060,-3.540,8.610,14.500,18.188,22.375
34.165,30,-127.562,-31.750,0.063,48.563,58.250,-3.125,1.150,-4.460,7.620,-1.620,-1.160,-1.170,2.690,-3.230,8.850,14.750,15.938,20.063
34.189,30,-127.562,-31.750,0.063,36.250,45.938,-1.000,2.150,-5.130,7.460,-0.240,0.040,0.250,2.570,-3.120,8.930,14.563,15.188,19.250
34.21,30,-126.688,-30.375,2.063,35.812,26.188,25.938,1.830,-2.720,8.910,-0.620,0.330,-0.070,2.460,-3.050,8.980,14.125,14.500,18.750
34.234,30,-126.688,-30.375,2.063,14.500,17.563,8.750,2.580,-1.870,8.710,0.200,1.130,-0.300,2.380,-3.010,9.020,14.000,14.063,18.438
34.275,30,-124.563,-31.688,3.563,-19.563,25.375,-4.500,2.070,-4.070,7.500,-0.220,-1.060,-1.530,2.300,-3.010,9.040,14.250,13.375,18.688
34.299,30,-125.750,-32.250,2.688,-38.375,13.500,12.063,2.120,-3.130,8.450,-0.120,-0.010,-0.560,2.210,-3.200,9.000,14.188,13.000,19.563
34.321,30,-125.750,-32.250,2.688,-37.813,12.500,20.125,2.770,-3.810,8.690,0.610,-0.470,-0.260,2.150,-3.330,8.960,14.000,12.625,20.375
34.347,30,-126.063,-31.063,3.563,-18.000,9.563,26.750,1.910,-4.660,8.620,-0.180,-1.240,-0.320,2.090,-3.420,8.940,13.563,12.313,20.875
34.388,30,-126.063,-31.063,3.563,-64.250,12.000,21.125,1.740,-4.290,7.730,-0.160,-0.520,-1.110,1.910,-3.760,8.840,12.375,11.125,23.563
34.409,30,-125.250,-30.500,3.688,-45.938,-0.438,21.563,1.100,-4.780,8.610,-0.750,-0.780,-0.130,1.860,-4.000,8.750,12.000,10.938,24.562
34.433,30,-125.250,-30.500,3.688,-41.563,10.313,31.688,1.510,-4.710,8.360,-0.280,-0.570,-0.330,1.800,-4.130,8.700,11.563,10.562,25.375
34.456,30,-125.250,-28.250,2.500,-37.188,12.625,38.688,0.730,-4.250,8.470,-0.970,0.010,-0.180,1.710,-4.270,8.650,10.688,9.813,26.563
34.499,30,-125.250,-27.250,3.563,-36.563,5.875,21.813,1.290,-3.930,8.010,-0.300,0.540,-0.560,1.590,-4.470,8.570,9.938,9.250,28.000
34.52,30,-125.250,-27.250,3.563,-43.000,2.375,12.938,0.620,-4.980,9.150,-0.920,-0.300,0.680,1.540,-4.680,8.470,9.813,9.063,28.875
34.545,30,-125.250,-27.250,3.563,-71.375,25.875,10.688,0.910,-5.080,8.290,-0.550,-0.220,-0.090,1.410,-4.980,8.320,9.875,8.000,31.563
34.6,30,-125.500,-23.875,3.500,-25.000,6.000,9.750,1.390,-5.090,7.330,0.090,0.160,-0.820,1.290,-5.290,8.150,9.563,7.563,33.000
34.621,30,-125.500,-23.875,3.500,-4.125,-0.313,7.750,0.920,-6.240,8.400,-0.360,-0.950,0.240,1.280,-5.280,8.150,9.438,7.500,32.938
34.646,30,-125.500,-23.875,3.500,24.875,0.563,13.625,0.800,-5.730,8.500,-0.460,-0.500,0.310,1.270,-5.230,8.190,9.188,7.438,32.563
34.667,30,-124.187,-24.562,2.563,41.125,9.625,16.000,1.100,-4.180,8.060,-0.110,0.940,-0.200,1.220,-5.120,8.270,8.750,7.063,31.375
34.71,30,-124.875,-22.250,2.875,64.563,0.000,-13.188,0.650,-5.010,7.960,-0.170,-0.230,-0.470,1.230,-4.800,8.450,9.000,7.250,29.563
34.734,30,-124.875,-22.250,2.875,78.688,-11.563,-16.625,0.820,-4.500,8.910,-0.460,0.060,0.340,1.290,-4.570,8.570,9.188,7.563,28.063
34.757,30,-124.875,-25.500,2.875,72.438,3.938,-19.438,0.770,-4.690,8.270,-0.540,-0.350,-0.410,1.320,-4.340,8.690,9.625,7.813,25.750
34.781,30,-124.875,-25.500,2.875,90.688,-8.563,-23.563,0.900,-3.910,9.360,-0.490,0.010,0.480,1.390,-3.920,8.870,9.875,8.125,23.813
34.825,30,-123.375,-27.687,2.188,85.375,16.375,-13.188,1.510,-3.040,8.300,0.130,0.280,-0.810,1.380,-3.330,9.110,10.438,8.063,20.063
34.851,30,-123.687,-30.250,2.500,81.500,16.375,-5.625,1.480,-2.380,7.700,0.140,0.680,-1.510,1.330,-3.060,9.210,10.562,7.750,17.563
34.872,30,-123.687,-30.250,2.500,72.000,4.125,-12.000,1.100,-3.160,9.040,-0.230,-0.440,-0.280,1.330,-2.710,9.320,10.750,7.813,16.188
34.897,30,-123.687,-30.250,2.500,74.688,-11.938,-18.313,0.670,-2.610,9.930,-0.710,-0.150,0.540,1.380,-2.460,9.380,11.000,8.125,14.688
34.938,30,-123.000,-31.750,2.688,22.813,12.500,-19.875,1.240,-3.010,8.350,-0.120,-0.810,-1.100,1.360,-2.200,9.450,11.625,8.000,13.062
34.959,30,-122.562,-34.000,2.563,18.188,4.500,-2.938,0.420,-2.050,9.030,-0.920,0.070,-0.440,1.350,-2.130,9.470,11.812,7.875,12.688
34.983,30,-122.562,-34.000,2.563,-9.750,4.063,-5.375,1.200,-2.680,9.530,-0.130,-0.530,0.060,1.340,-2.150,9.470,11.938,7.875,12.750
35.007,30,-122.562,-33.063,2.188,31.563,-12.375,-9.375,1.090,-2.020,9.420,-0.280,0.040,-0.060,1.380,-2.060,9.480,12.063,8.063,12.250
35.064,30,-121.500,-35.250,3.688,42.250,-14.125,-7.125,1.130,-1.670,9.150,-0.390,0.010,-0.380,1.520,-1.680,9.530,12.563,8.938,10.000
35.09,30,-121.500,-35.250,3.688,37.250,-8.563,-8.250,1.260,-1.720,9.410,-0.290,-0.160,-0.130,1.550,-1.550,9.550,12.625,9.125,9.188
35.111,30,-120.375,-35.875,3.000,40.750,-8.125,-8.813,1.530,-1.340,9.420,-0.050,0.080,-0.140,1.600,-1.340,9.580,12.750,9.375,8.000
35.135,30,-120.375,-35.875,3.000,39.813,-3.625,-7.750,1.360,-1.580,9.430,-0.250,-0.360,-0.150,1.610,-1.220,9.590,12.813,9.438,7.250
35.178,30,-121.500,-37.750,3.688,27.750,3.688,-5.688,1.270,-1.360,9.010,-0.330,-0.340,-0.600,1.600,-1.010,9.610,12.938,9.375,5.813
35.203,30,-121.062,-38.000,3.250,14.000,-1.875,-2.188,1.370,-0.270,9.300,-0.230,0.690,-0.310,1.600,-0.960,9.620,13.000,9.438,5.625
35.224,30,-121.062,-38.000,3.250,12.688,-7.813,-12.813,1.400,-1.640,10.410,-0.250,-0.750,0.780,1.650,-0.890,9.620,13.250,9.688,5.250
35.249,30,-121.500,-39.750,3.563,15.125,7.875,-9.250,0.670,-0.570,10.050,-0.980,0.230,0.420,1.660,-0.800,9.630,13.438,9.750,4.750
35.29,30,-121.500,-39.750,3.563,-16.438,2.188,-12.188,1.610,-0.610,8.890,0.000,0.200,-0.740,1.610,-0.820,9.630,14.000,9.438,4.875
35.311,30,-120.000,-40.750,2.875,-14.625,-3.750,-5.625,1.550,-0.800,8.800,-0.070,0.060,-0.820,1.640,-0.900,9.620,14.250,9.625,5.375
35.335,30,-120.000,-40.750,2.875,-30.187,-8.188,-7.250,1.490,-1.720,9.020,-0.180,-0.730,-0.580,1.670,-0.990,9.610,14.375,9.813,5.875
35.359,30,-120.000,-39.188,2.750,-22.000,-25.938,-0.875,1.330,-0.430,8.940,-0.420,0.630,-0.640,1.750,-1.060,9.580,14.500,10.562,6.563
35.403,30,-120.750,-38.875,3.250,6.563,-43.750,-1.813,2.180,-1.420,10.280,0.170,-0.280,0.750,2.000,-1.130,9.530,14.688,12.125,6.688
35.424,30,-120.750,-38.875,3.250,6.813,-25.375,-2.313,1.770,-1.730,9.370,-0.240,-0.870,-0.450,2.130,-1.110,9.500,14.625,12.563,6.625
35.448,30,-120.750,-38.875,3.250,0.938,-13.500,10.375,1.930,-1.170,9.010,-0.240,-0.050,-0.480,2.170,-1.120,9.490,14.375,12.750,6.688
35.469,30,-121.062,-38.500,2.375,-11.187,-6.750,8.688,2.040,-1.520,9.060,-0.150,-0.360,-0.410,2.190,-1.160,9.480,14.250,12.875,6.938
35.526,30,-119.875,-39.063,2.063,14.750,-27.438,5.250,1.880,-1.020,9.760,-0.480,0.100,0.310,2.360,-1.130,9.440,13.687,13.938,6.813
35.552,30,-120.187,-38.000,2.375,12.188,-19.563,1.688,1.890,-2.120,9.710,-0.540,-1.030,0.270,2.430,-1.090,9.430,13.625,14.375,6.563
35.573,30,-120.187,-38.000,2.375,-7.188,-9.500,3.563,1.910,-1.050,9.380,-0.550,0.040,-0.030,2.480,-1.110,9.420,13.563,14.688,6.688
35.616,30,-121.687,-38.375,1.688,5.000,-9.188,-1.875,2.280,-1.410,9.120,-0.260,-0.330,-0.280,2.540,-1.070,9.400,13.500,15.063,6.500
35.642,30,-121.687,-38.375,1.688,16.250,-5.875,5.000,2.730,-1.690,8.800,0.160,-0.640,-0.600,2.560,-1.050,9.400,13.438,15.125,6.375
35.663,30,-120.375,-40.875,3.250,20.000,-5.750,5.250,1.980,-1.040,9.130,-0.590,-0.050,-0.270,2.590,-0.980,9.400,13.188,15.313,5.938
35.687,30,-120.375,-40.875,3.250,-14.688,0.000,1.063,2.050,-1.320,9.070,-0.530,-0.280,-0.320,2.580,-1.030,9.400,13.250,15.250,6.250
35.731,30,-121.500,-40.062,2.375,11.625,-3.313,-2.313,2.350,-0.840,9.650,-0.250,0.160,0.250,2.600,-1.010,9.390,13.313,15.375,6.063
35.756,30,-120.562,-40.062,2.063,2.438,2.063,3.500,2.310,-1.470,8.720,-0.280,-0.470,-0.670,2.600,-1.000,9.400,13.250,15.375,6.125
35.777,30,-120.562,-40.062,2.063,-13.750,0.688,9.813,2.160,-1.420,8.900,-0.430,-0.330,-0.480,2.590,-1.080,9.390,13.125,15.313,6.563
35.803,30,-121.375,-39.750,2.875,-7.375,-7.250,9.938,2.630,-1.510,8.140,0.030,-0.380,-1.240,2.600,-1.120,9.380,13.000,15.375,6.813
35.844,30,-121.375,-39.750,2.875,-0.375,-5.688,3.250,2.400,-1.640,9.020,-0.290,-0.490,-0.330,2.700,-1.140,9.350,12.750,16.000,6.938
35.865,30,-119.750,-38.688,2.375,0.625,-5.688,8.813,2.290,-1.280,8.990,-0.410,-0.140,-0.360,2.680,-1.170,9.350,12.500,15.875,7.125
35.889,30,-119.750,-38.688,2.375,-24.188,26.688,8.000,2.000,-1.680,9.360,-0.570,-0.420,-0.010,2.580,-1.260,9.370,12.437,15.250,7.625
35.912,30,-121.562,-39.000,2.875,5.750,33.063,15.875,2.670,-0.880,8.560,0.210,0.410,-0.840,2.460,-1.290,9.400,12.313,14.563,7.813
35.962,30,-119.375,-37.500,2.875,12.250,-0.750,-1.375,1.610,-2.000,9.560,-0.850,-0.920,0.130,2.470,-1.080,9.420,11.625,14.438,6.563
35.987,30,-119.375,-37.500,2.875,-9.500,18.563,-1.313,1.810,-1.960,9.490,-0.390,-0.600,-0.110,2.380,-1.110,9.440,11.625,14.063,6.688
36.011,30,-119.750,-40.062,2.875,-8.375,27.563,3.313,2.040,-1.610,9.270,-0.250,-0.480,-0.190,2.290,-1.130,9.460,11.625,13.500,6.813
36.035,30,-119.750,-40.062,2.875,13.438,16.500,5.313,1.960,-1.030,9.110,-0.250,0.060,-0.370,2.200,-1.070,9.490,11.500,12.938,6.438
36.078,30,-119.000,-40.062,2.063,21.750,9.750,3.750,1.900,-1.560,9.480,-0.220,-0.610,-0.040,2.130,-0.940,9.520,11.250,12.500,5.625
36.103,30,-119.000,-40.062,2.063,10.375,27.625,5.375,1.980,-1.390,9.700,-0.060,-0.480,0.150,2.050,-0.900,9.540,11.187,12.063,5.375
36.124,30,-119.000,-39.688,2.375,10.813,43.500,6.625,1.920,-1.280,9.090,0.000,-0.400,-0.480,1.910,-0.870,9.570,11.063,11.250,5.188
36.147,30,-119.000,-39.688,2.375,29.563,34.250,13.750,1.480,-1.260,9.380,-0.310,-0.460,-0.210,1.790,-0.800,9.600,10.813,10.500,4.750
36.188,30,-117.500,-40.687,2.750,54.875,5.250,22.188,1.240,0.640,9.290,-0.680,-0.380,-0.090,1.660,-0.420,9.650,9.688,9.750,2.500
36.212,30,-118.562,-40.000,2.750,34.562,4.563,-3.500,0.900,-1.160,9.640,-0.730,-0.860,-0.010,1.640,-0.300,9.660,9.688,9.625,1.750
36.234,30,-118.562,-40.000,2.750,26.625,11.125,-2.563,1.060,-0.030,9.470,-0.530,0.160,-0.200,1.600,-0.200,9.670,9.688,9.250,1.063
36.258,30,-117.375,-41.188,3.063,-16.625,13.188,-4.688,0.880,-1.060,9.290,-0.670,-0.860,-0.380,1.560,-0.200,9.670,9.750,9.063,1.375
36.299,30,-117.375,-41.188,3.063,-30.125,-4.063,10.688,0.910,-1.000,9.550,-0.640,-0.620,-0.120,1.550,-0.370,9.670,9.438,9.125,2.438
36.32,30,-115.750,-42.000,1.750,-25.500,1.438,16.000,1.360,-0.830,9.300,-0.170,-0.320,-0.360,1.540,-0.510,9.670,9.188,9.000,3.000
36.346,30,-115.750,-42.000,1.750,-34.625,9.438,19.750,1.090,-0.360,9.510,-0.410,0.260,-0.150,1.510,-0.630,9.660,8.813,8.813,3.688
36.367,30,-116.875,-42.000,1.688,-45.687,18.563,3.813,1.080,-1.490,9.540,-0.370,-0.710,-0.110,1.420,-0.850,9.660,8.750,8.313,5.063
36.421,30,-116.500,-40.750,2.750,-18.063,6.313,15.688,0.890,-1.340,9.430,-0.400,-0.270,-0.220,1.300,-1.070,9.660,8.188,7.563,6.313
36.446,30,-116.500,-40.750,2.750,-9.813,6.750,9.250,0.870,-1.500,9.480,-0.400,-0.380,-0.170,1.280,-1.110,9.650,8.000,7.500,6.563
36.467,30,-115.562,-40.375,1.750,0.375,11.250,2.875,0.860,-0.930,9.640,-0.370,0.190,-0.010,1.210,-1.090,9.660,7.938,7.063,6.438
36.491,30,-115.562,-40.375,1.750,56.688,28.250,0.813,0.650,-0.350,9.480,-0.470,0.530,-0.210,1.130,-0.890,9.700,7.875,6.563,5.250
36.535,30,-114.750,-40.000,1.063,65.625,-2.125,10.625,0.670,-1.360,10.110,-0.390,-0.880,0.370,1.070,-0.480,9.730,7.375,6.188,2.188
36.56,30,-116.188,-40.375,3.750,66.375,9.563,9.313,0.640,-0.310,9.670,-0.400,-0.030,-0.070,1.040,-0.270,9.740,7.188,5.938,0.938
36.581,30,-116.188,-40.375,3.750,68.187,19.625,1.188,0.390,0.520,9.440,-0.550,0.470,-0.310,0.950,0.040,9.760,7.188,5.563,-0.250
36.608,30,-114.562,-41.875,3.688,17.063,21.437,-14.875,0.360,-0.140,9.490,-0.500,-0.290,-0.260,0.870,0.140,9.760,7.375,5.063,-0.813
36.649,30,-114.562,-41.875,3.688,13.375,22.062,2.000,0.380,-0.080,9.320,-0.360,-0.260,-0.440,0.740,0.170,9.770,7.375,4.313,-1.000
36.67,30,-113.688,-43.688,3.563,4.250,11.938,9.875,0.290,0.030,9.560,-0.420,-0.120,-0.280,0.680,0.200,9.780,7.125,3.938,-1.125
36.694,30,-113.688,-43.688,3.563,1.938,5.375,-0.375,0.170,0.030,9.420,-0.480,-0.170,-0.350,0.650,0.200,9.780,7.063,3.813,-1.188
36.717,30,-113.563,-44.063,3.750,-1.250,-3.625,0.125,0.470,-0.230,9.580,-0.190,-0.430,-0.190,0.660,0.200,9.780,7.063,3.875,-1.125
36.761,30,-114.250,-42.875,3.688,-1.000,-3.375,2.125,0.420,-0.140,9.590,-0.230,-0.330,-0.180,0.650,0.180,9.780,7.000,3.875,-1.063
36.782,30,-114.250,-42.875,3.688,-4.688,-4.813,1.500,0.000,0.300,9.630,-0.660,0.150,-0.140,0.670,0.150,9.780,6.938,3.875,-0.875
36.808,30,-113.875,-43.750,2.375,-23.250,-8.188,-4.688,0.330,0.190,9.650,-0.350,0.100,-0.120,0.690,0.080,9.780,7.000,4.000,-0.500
36.829,30,-113.875,-43.750,2.375,-31.688,-13.750,-13.750,0.130,-0.180,9.290,-0.600,-0.170,-0.480,0.730,0.000,9.770,7.438,4.438,0.313
36.872,30,-113.375,-43.750,2.875,-27.563,-32.375,-4.875,1.040,0.000,8.930,0.080,0.260,-0.820,0.960,-0.250,9.750,7.813,5.625,1.438
36.908,30,-113.750,-42.250,1.563,-0.625,-62.313,-5.375,0.890,0.190,9.950,-0.310,0.490,0.230,1.200,-0.300,9.720,7.875,7.063,1.750
36.93,30,-113.750,-42.250,1.563,-12.000,-74.437,-27.875,-0.750,1.850,9.290,-2.210,2.170,-0.390,1.580,-0.320,9.670,8.813,9.250,1.875
36.974,30,-114.562,-42.000,2.750,-25.500,-52.000,-34.313,1.750,-0.970,9.600,-0.210,-0.600,0.000,1.970,-0.360,9.590,10.750,11.563,2.188
37.0,30,-114.562,-42.000,2.750,-9.125,-17.125,-7.750,1.800,-0.640,9.530,-0.240,-0.250,-0.050,2.040,-0.390,9.580,10.875,12.000,2.313
37.021,30,-117.062,-42.000,2.750,-5.875,-15.063,1.250,1.430,0.340,9.670,-0.650,0.750,0.100,2.100,-0.420,9.560,10.875,12.375,2.500
37.045,30,-117.062,-42.000,2.750,-0.438,-3.625,4.438,1.960,-1.700,9.970,-0.130,-1.280,0.400,2.090,-0.410,9.570,10.875,12.313,2.438
37.088,30,-116.375,-42.250,0.688,31.750,68.250,7.625,2.660,-1.100,9.550,0.910,-0.840,-0.080,1.750,-0.260,9.640,10.750,9.500,1.188
37.113,30,-115.875,-42.000,2.563,44.188,93.875,16.188,2.160,-2.390,9.530,0.690,-2.260,-0.150,1.280,-0.050,9.720,10.250,7.500,0.313
37.134,30,-115.875,-42.000,2.563,56.563,116.688,50.375,1.410,-1.980,9.670,0.500,-2.080,-0.080,0.910,0.100,9.760,9.063,5.313,-0.563
37.159,30,-115.875,-42.000,2.563,49.313,131.062,120.125,1.110,-0.860,8.130,0.590,-1.100,-1.650,0.510,0.240,9.780,6.938,3.000,-1.375
37.2,30,-113.563,-43.750,2.563,-0.563,5.625,175.125,0.010,0.990,10.010,-0.210,0.620,0.210,0.220,0.360,9.790,0.500,1.313,-2.125
37.221,30,-112.687,-44.500,1.375,1.000,6.875,150.250,-0.470,1.060,9.480,-0.680,0.690,-0.310,0.200,0.360,9.790,356.125,1.188,-2.125
37.245,30,-112.687,-44.500,1.375,0.313,4.750,122.938,-0.370,0.930,9.540,-0.580,0.570,-0.250,0.210,0.360,9.790,354.500,1.188,-2.063
37.269,30,-114.250,-43.750,3.500,0.313,-1.563,-22.625,0.250,0.080,9.540,0.040,-0.280,-0.250,0.210,0.360,9.790,355.062,1.188,-2.125
37.313,30,-113.563,-43.250,2.375,1.125,0.438,-8.188,-0.720,0.410,9.540,-0.940,0.040,-0.250,0.210,0.360,9.790,355.437,1.250,-2.125
37.334,30,-113.563,-43.250,2.375,0.438,-0.375,-16.125,1.330,-2.010,9.740,0.680,-1.510,-0.200,0.210,0.360,9.790,355.625,1.250,-2.125
37.359,30,-113.563,-43.250,2.375,0.063,0.813,25.750,-0.180,0.280,9.520,-0.400,-0.080,-0.260,0.210,0.360,9.790,355.250,1.250,-2.125
37.387,30,-112.563,-42.375,1.375,-0.125,1.063,30.563,0.110,0.350,9.560,-0.100,-0.010,-0.230,0.210,0.360,9.790,354.375,1.250,-2.125
37.433,30,-113.000,-42.562,1.500,0.625,1.125,27.875,0.030,-0.040,9.620,-0.180,-0.400,-0.170,0.210,0.360,9.790,353.000,1.250,-2.063
