Time, Temperature, Mag X, Mag Y, Mag Z, Gyro X, Gyro Y, Gyro Z, Acc X, Acc Y, Acc Z, Lin Acc X, Lin Acc Y, Lin Acc Z, Gravity X, Gravity Y, Gravity Z, Euler X, Euler Y, Euler Z
1.914,29,-40.563,-12.500,13.188,1.125,-1.000,1.313,-0.350,0.220,-9.750,-0.290,0.110,0.080,-0.100,0.080,-9.800,267.625,-0.625,-179.437
7.07,30,-135.750,-39.563,13.250,0.875,-0.125,-0.438,-0.290,-0.090,-9.630,0.090,-0.020,0.230,-0.410,-0.060,-9.790,268.187,-2.375,179.562
7.104,30,-135.750,-39.563,13.250,-1.000,-2.000,-1.125,-0.250,-0.050,-9.580,0.160,0.000,0.210,-0.420,-0.060,-9.790,268.125,-2.438,179.562
7.147,30,-135.500,-39.563,12.563,1.125,-3.188,-0.563,-0.340,0.000,-9.340,0.090,0.050,0.440,-0.440,-0.060,-9.790,268.125,-2.563,179.562
7.171,30,-135.750,-39.250,14.063,-1.313,-1.125,-1.875,-0.340,-0.010,-9.570,0.100,0.040,0.220,-0.440,-0.060,-9.790,268.062,-2.625,179.625
7.192,30,-135.750,-39.250,14.063,-1.188,-3.313,-1.813,-0.380,0.020,-9.680,0.080,0.080,0.100,-0.460,-0.060,-9.790,268.062,-2.688,179.625
7.216,30,-135.750,-39.250,14.063,-1.250,-3.188,-1.500,-0.360,0.000,-9.640,0.100,0.060,0.140,-0.470,-0.050,-9.790,268.000,-2.750,179.625
7.257,30,-136.063,-40.000,13.000,0.313,0.438,-0.250,-0.420,0.030,-9.560,0.040,0.090,0.230,-0.470,-0.050,-9.790,268.000,-2.750,179.625
7.279,30,-135.375,-39.250,14.375,-0.625,-0.063,-0.438,-0.420,0.010,-9.630,0.040,0.070,0.150,-0.470,-0.050,-9.790,268.000,-2.750,179.625
7.303,30,-135.375,-39.250,14.375,-1.125,0.188,-0.063,-0.310,0.080,-9.800,0.150,0.130,0.000,-0.470,-0.050,-9.790,268.000,-2.750,179.688
7.327,30,-135.000,-39.563,13.188,0.813,1.750,1.813,-0.250,0.030,-9.650,0.210,0.090,0.140,-0.470,-0.050,-9.790,268.000,-2.750,179.625
7.372,30,-135.375,-40.000,11.250,0.000,6.875,2.188,-0.290,0.020,-9.630,0.130,0.070,0.150,-0.430,-0.050,-9.790,268.125,-2.438,179.625
7.393,30,-135.375,-40.000,11.250,0.563,7.688,1.813,-0.260,0.070,-9.450,0.130,0.130,0.340,-0.390,-0.050,-9.790,268.125,-2.313,179.625
7.417,30,-135.375,-40.000,11.250,1.750,6.750,2.563,-0.300,0.010,-9.470,0.070,0.080,0.320,-0.370,-0.060,-9.790,268.187,-2.188,179.625
7.458,30,-135.375,-40.000,12.875,1.563,2.813,1.375,-0.310,-0.040,-9.370,0.020,0.030,0.420,-0.340,-0.070,-9.800,268.313,-2.000,179.500
7.489,30,-135.000,-40.250,13.563,-0.063,0.563,-0.188,-0.330,-0.030,-9.520,0.000,0.040,0.270,-0.340,-0.070,-9.800,268.313,-2.000,179.500
7.513,30,-135.000,-40.250,13.563,0.688,-1.875,0.063,-0.190,0.010,-9.510,0.150,0.090,0.280,-0.340,-0.070,-9.800,268.313,-2.063,179.500
7.534,30,-135.687,-39.563,13.188,1.188,-2.313,1.250,-0.300,-0.030,-9.600,0.060,0.040,0.190,-0.360,-0.080,-9.790,268.313,-2.063,179.437
7.579,30,-135.000,-39.563,14.000,2.625,-0.375,-0.063,-0.100,-0.060,-9.600,0.260,0.030,0.180,-0.360,-0.100,-9.790,268.313,-2.125,179.375
7.603,30,-135.000,-39.563,14.000,3.813,-3.500,1.000,-0.260,-0.050,-9.380,0.130,0.040,0.270,-0.370,-0.110,-9.790,268.375,-2.188,179.312
7.627,30,-134.562,-40.000,13.188,-0.688,-4.125,-0.188,-0.140,-0.100,-9.670,0.180,-0.060,-0.070,-0.380,-0.110,-9.790,268.375,-2.250,179.312
7.648,30,-134.562,-40.000,13.188,0.000,-2.125,-0.313,-0.260,-0.140,-9.740,0.130,-0.030,0.050,-0.390,-0.110,-9.790,268.375,-2.313,179.312
7.694,30,-135.687,-39.250,12.750,3.500,-1.500,0.063,-0.370,-0.040,-9.330,0.030,0.150,0.480,-0.400,-0.130,-9.790,268.313,-2.313,179.187
7.72,30,-135.687,-39.250,12.750,0.125,-2.750,0.250,-0.360,0.070,-9.490,0.040,0.210,0.300,-0.410,-0.130,-9.790,268.313,-2.375,179.125
7.741,30,-135.000,-39.563,13.062,-0.375,-2.688,0.375,-0.250,-0.120,-9.680,0.160,0.000,0.110,-0.420,-0.130,-9.790,268.313,-2.438,179.125
7.765,30,-135.000,-39.563,13.062,3.375,-3.188,3.313,-0.390,-0.110,-9.490,0.030,0.020,0.300,-0.430,-0.140,-9.790,268.375,-2.500,179.063
7.806,30,-135.375,-40.000,12.875,-1.125,-1.188,0.563,-0.190,-0.150,-9.680,0.240,0.000,0.100,-0.440,-0.140,-9.790,268.438,-2.563,179.125
7.83,30,-135.687,-38.875,12.375,1.063,0.813,1.313,-0.240,-0.120,-9.720,0.190,0.020,0.070,-0.430,-0.150,-9.790,268.438,-2.500,179.063
7.854,30,-135.687,-38.875,12.375,3.125,-0.500,2.188,-0.330,-0.110,-9.380,0.100,0.040,0.400,-0.430,-0.160,-9.790,268.500,-2.500,179.000
7.878,30,-135.375,-39.563,11.875,-1.188,-0.250,-0.063,-0.250,-0.110,-9.750,0.180,0.040,0.030,-0.430,-0.160,-9.790,268.500,-2.563,179.000
7.931,30,-135.000,-38.875,13.062,1.438,-0.313,1.000,-0.250,0.000,-9.590,0.180,0.170,0.200,-0.430,-0.160,-9.790,268.562,-2.500,179.000
7.955,30,-135.000,-38.875,13.062,1.625,-1.000,1.875,-0.260,-0.100,-9.630,0.190,-0.020,0.100,-0.430,-0.160,-9.790,268.562,-2.500,179.000
7.979,30,-135.687,-40.000,12.375,0.500,-0.625,1.688,-0.270,-0.200,-9.680,0.110,-0.040,0.110,-0.430,-0.160,-9.790,268.625,-2.500,179.000
8.02,30,-135.687,-40.000,12.375,-0.875,3.438,0.313,-0.300,-0.190,-9.720,0.120,-0.020,0.070,-0.420,-0.160,-9.790,268.625,-2.438,179.000
8.041,30,-134.562,-39.563,13.500,1.125,-0.313,0.375,-0.240,-0.100,-9.490,0.170,0.060,0.290,-0.410,-0.160,-9.790,268.625,-2.438,179.000
8.066,30,-134.562,-39.563,13.500,-0.375,-1.750,-0.125,-0.350,-0.110,-9.500,0.060,0.050,0.280,-0.420,-0.160,-9.790,268.625,-2.438,179.000
8.087,30,-136.500,-38.875,12.375,-1.875,-2.563,-0.875,-0.360,-0.070,-9.450,0.160,0.120,0.080,-0.430,-0.150,-9.790,268.625,-2.500,179.063
8.13,30,-135.375,-38.500,13.500,0.375,-0.625,1.000,-0.230,-0.050,-9.580,0.190,0.090,0.210,-0.430,-0.150,-9.790,268.625,-2.500,179.063
8.156,30,-135.375,-38.500,13.500,-0.375,-0.625,1.375,-0.300,-0.110,-9.530,0.070,0.000,0.110,-0.420,-0.150,-9.790,268.625,-2.500,179.063
8.18,30,-134.562,-39.250,11.563,-1.563,1.188,-0.063,-0.300,-0.160,-9.780,0.110,-0.060,0.030,-0.420,-0.140,-9.790,268.625,-2.438,179.125
8.201,30,-134.562,-39.250,11.563,1.000,1.500,-0.250,-0.220,-0.080,-9.630,0.190,0.060,0.160,-0.420,-0.140,-9.790,268.625,-2.438,179.125
8.247,30,-134.250,-38.875,13.875,-1.000,-0.125,0.000,-0.260,0.000,-9.560,0.210,0.130,0.240,-0.410,-0.140,-9.790,268.625,-2.375,179.125
8.271,30,-134.250,-38.875,13.875,-0.313,0.938,0.688,-0.280,-0.150,-9.620,0.120,-0.010,0.160,-0.400,-0.140,-9.790,268.687,-2.375,179.125
8.295,30,-135.375,-39.250,11.875,0.313,0.813,-0.250,-0.380,-0.180,-9.730,0.010,-0.040,0.060,-0.400,-0.140,-9.790,268.625,-2.313,179.125
8.322,30,-134.250,-38.500,13.062,-0.375,0.125,-0.563,-0.300,-0.030,-9.540,0.100,0.110,0.240,-0.400,-0.140,-9.790,268.625,-2.313,179.125
8.367,30,-134.250,-38.500,13.062,-0.500,0.063,-0.375,-0.260,-0.140,-9.670,0.130,0.000,0.120,-0.390,-0.130,-9.790,268.625,-2.313,179.187
8.388,30,-135.687,-39.250,13.500,-1.250,-0.938,-0.750,-0.310,-0.100,-9.540,0.060,0.000,0.150,-0.400,-0.130,-9.790,268.625,-2.313,179.187
8.412,30,-135.687,-39.250,13.500,-2.063,-2.250,-0.813,-0.300,-0.090,-9.520,0.090,0.030,0.270,-0.400,-0.120,-9.790,268.625,-2.375,179.250
8.455,30,-135.687,-39.563,12.750,0.188,-1.063,-0.750,-0.370,-0.160,-9.550,0.030,-0.040,0.240,-0.410,-0.120,-9.790,268.562,-2.375,179.250
8.479,30,-134.687,-40.000,13.563,0.750,-2.625,-1.375,-0.330,-0.040,-9.370,0.080,0.070,0.410,-0.420,-0.120,-9.790,268.562,-2.438,179.250
8.5,30,-134.687,-40.000,13.563,-0.438,-3.313,-1.938,-0.300,-0.030,-9.600,0.130,0.080,0.190,-0.430,-0.120,-9.790,268.500,-2.500,179.250
8.525,30,-134.687,-40.000,13.563,-1.313,-5.000,-1.500,-0.340,-0.110,-9.580,0.100,0.000,0.210,-0.450,-0.110,-9.790,268.438,-2.625,179.312
8.566,30,-135.375,-38.875,13.875,-0.063,-2.875,-2.313,-0.340,-0.080,-9.730,0.130,0.020,0.050,-0.470,-0.100,-9.790,268.375,-2.750,179.312
8.587,30,-135.000,-39.563,12.750,1.563,-1.063,-0.750,-0.410,0.040,-9.510,0.060,0.160,0.270,-0.470,-0.110,-9.790,268.375,-2.750,179.312
8.61,30,-135.000,-39.563,12.750,-0.250,0.063,-0.125,-0.390,0.000,-9.670,0.080,0.100,0.120,-0.470,-0.110,-9.790,268.375,-2.750,179.312
8.634,30,-134.562,-39.250,11.875,1.125,1.375,1.000,-0.420,-0.090,-9.550,0.040,0.020,0.240,-0.470,-0.110,-9.790,268.375,-2.750,179.312
8.679,30,-135.687,-39.563,12.375,0.313,0.938,0.375,-0.300,-0.010,-9.490,0.050,0.000,0.290,-0.460,-0.110,-9.790,268.375,-2.688,179.312
8.703,30,-135.687,-39.563,12.375,-0.688,1.313,0.438,-0.380,-0.140,-9.730,0.070,-0.030,0.060,-0.450,-0.110,-9.790,268.375,-2.625,179.312
8.729,30,-135.000,-38.875,12.750,1.500,1.375,0.750,-0.330,-0.050,-9.600,0.120,0.060,0.190,-0.450,-0.110,-9.790,268.438,-2.625,179.312
8.755,30,-135.000,-38.875,12.750,2.000,2.063,1.875,-0.360,-0.130,-9.350,0.070,-0.010,0.430,-0.440,-0.120,-9.790,268.438,-2.563,179.250
8.8,30,-134.687,-39.563,11.875,0.625,1.688,-0.375,-0.270,-0.100,-9.550,0.120,0.050,0.230,-0.420,-0.120,-9.790,268.500,-2.438,179.187
8.824,30,-134.687,-39.563,11.875,1.313,2.188,-0.500,-0.240,-0.080,-9.690,0.160,0.040,0.100,-0.410,-0.130,-9.790,268.500,-2.375,179.187
8.845,30,-134.687,-38.875,12.750,5.250,1.563,1.313,-0.250,-0.110,-9.620,0.140,0.030,0.170,-0.400,-0.140,-9.790,268.500,-2.313,179.125
8.87,30,-134.687,-38.875,12.750,4.938,1.063,1.688,-0.350,-0.180,-9.310,0.040,-0.010,0.480,-0.390,-0.160,-9.790,268.562,-2.313,179.000
8.911,30,-134.750,-38.875,13.062,-1.750,-0.813,-1.188,-0.200,-0.190,-9.740,0.190,-0.030,0.040,-0.390,-0.160,-9.790,268.500,-2.313,179.000
8.935,30,-135.062,-39.250,13.563,-1.250,-1.188,-2.250,-0.230,-0.150,-9.600,0.160,0.000,0.190,-0.400,-0.160,-9.790,268.438,-2.313,179.000
8.959,30,-135.062,-39.250,13.563,1.000,-4.313,-1.688,-0.240,-0.040,-9.480,0.170,0.110,0.310,-0.420,-0.160,-9.790,268.438,-2.438,179.000
9.003,30,-135.500,-38.875,12.750,-1.500,-4.000,-1.813,-0.280,-0.050,-9.640,0.160,0.090,0.150,-0.440,-0.150,-9.790,268.313,-2.563,179.063
9.028,30,-134.250,-39.250,13.500,-3.750,-0.438,-3.313,-0.210,-0.160,-10.020,0.230,-0.020,-0.220,-0.440,-0.130,-9.790,268.250,-2.563,179.187
9.049,30,-134.250,-39.250,13.500,0.875,-1.438,-1.250,-0.360,-0.100,-9.540,0.080,0.030,0.240,-0.450,-0.130,-9.790,268.250,-2.625,179.125
9.073,30,-134.250,-39.250,13.500,-0.375,0.375,-1.438,-0.400,-0.020,-9.540,0.040,0.110,0.250,-0.450,-0.130,-9.790,268.187,-2.625,179.187
9.114,30,-135.062,-39.563,12.750,-3.000,0.563,-0.938,-0.340,-0.120,-9.650,0.100,0.000,0.130,-0.440,-0.120,-9.790,268.125,-2.563,179.250
9.137,30,-136.187,-39.250,13.875,-0.063,0.813,-0.188,-0.420,-0.140,-9.570,0.020,-0.020,0.220,-0.440,-0.120,-9.790,268.125,-2.563,179.250
9.159,30,-136.187,-39.250,13.875,-1.000,-1.313,-1.063,-0.300,-0.060,-9.520,0.140,0.050,0.260,-0.440,-0.110,-9.790,268.125,-2.563,179.312
9.186,30,-135.000,-40.000,13.062,-2.125,-0.750,-0.750,-0.330,-0.190,-9.850,0.110,-0.080,-0.060,-0.440,-0.100,-9.790,268.125,-2.563,179.312
9.229,30,-134.562,-40.250,12.750,1.000,1.125,-0.500,-0.410,-0.180,-9.510,0.030,-0.070,0.270,-0.440,-0.110,-9.790,268.125,-2.563,179.312
9.253,30,-134.562,-40.250,12.750,0.813,0.188,-1.813,-0.380,0.000,-9.230,0.050,0.120,0.550,-0.440,-0.110,-9.790,268.062,-2.563,179.250
9.279,30,-135.000,-38.875,12.750,-2.250,-2.688,-2.000,-0.410,0.020,-9.320,0.030,0.140,0.470,-0.440,-0.110,-9.790,268.062,-2.563,179.312
9.3,30,-135.000,-38.875,12.750,-3.313,-2.750,-1.875,-0.390,-0.060,-9.680,0.060,0.040,0.110,-0.450,-0.100,-9.790,268.000,-2.688,179.375
9.344,30,-135.687,-39.563,13.500,0.688,-1.500,-0.313,-0.420,-0.050,-9.550,0.050,0.040,0.230,-0.470,-0.090,-9.790,267.937,-2.750,179.375
9.369,30,-135.687,-39.563,13.500,-0.125,-0.813,-0.563,-0.390,-0.010,-9.490,0.080,0.080,0.300,-0.470,-0.090,-9.790,267.937,-2.750,179.375
9.39,30,-134.562,-39.250,12.375,-0.750,0.375,-0.563,-0.390,-0.020,-9.680,0.070,0.060,0.100,-0.470,-0.090,-9.790,267.937,-2.750,179.437
9.434,30,-135.000,-40.000,12.375,1.313,0.188,0.938,-0.400,0.010,-9.530,0.060,0.110,0.250,-0.470,-0.090,-9.790,268.000,-2.750,179.375
9.455,30,-135.000,-40.000,12.375,0.563,-1.625,0.688,-0.340,-0.110,-9.490,0.130,-0.010,0.290,-0.470,-0.090,-9.790,268.000,-2.750,179.375
9.48,30,-133.875,-38.875,14.250,-0.750,0.375,0.813,-0.380,-0.120,-9.600,0.090,-0.020,0.190,-0.470,-0.090,-9.790,268.000,-2.750,179.375
9.503,30,-133.875,-38.875,14.250,-0.438,0.688,0.250,-0.380,-0.110,-9.690,0.100,-0.020,0.190,-0.470,-0.090,-9.790,268.000,-2.750,179.375
9.547,30,-135.375,-39.563,13.062,0.313,-0.188,1.000,-0.340,-0.060,-9.560,0.120,0.030,0.220,-0.470,-0.100,-9.790,268.062,-2.750,179.375
9.573,30,-135.375,-39.563,13.062,1.500,-1.313,2.063,-0.390,-0.100,-9.460,0.080,0.000,0.330,-0.470,-0.100,-9.790,268.125,-2.750,179.375
9.594,30,-135.375,-38.875,12.750,0.188,-0.563,0.625,-0.390,-0.140,-9.560,0.080,-0.030,0.230,-0.470,-0.100,-9.790,268.125,-2.750,179.312
9.617,30,-135.375,-38.875,12.750,0.000,-2.125,-0.313,-0.330,-0.110,-9.600,0.140,0.000,0.190,-0.480,-0.100,-9.790,268.125,-2.813,179.312
9.672,30,-135.375,-39.563,12.250,-0.125,-0.688,0.563,-0.320,-0.110,-9.790,0.160,-0.010,0.000,-0.490,-0.100,-9.790,268.125,-2.875,179.312
9.694,30,-134.250,-38.875,13.000,1.750,0.750,0.750,-0.350,-0.190,-9.590,0.090,-0.040,0.270,-0.490,-0.110,-9.790,268.125,-2.813,179.312
9.718,30,-134.250,-38.875,13.000,-0.938,0.000,-0.875,-0.290,-0.080,-9.560,0.190,0.020,0.230,-0.490,-0.110,-9.790,268.125,-2.813,179.312
9.741,30,-134.562,-39.563,11.750,-0.375,-0.313,-0.750,-0.420,0.000,-9.580,0.060,0.110,0.200,-0.480,-0.110,-9.790,268.125,-2.813,179.312
9.784,30,-134.250,-39.250,14.188,0.063,0.125,0.000,-0.380,-0.030,-9.490,0.100,0.070,0.290,-0.480,-0.110,-9.790,268.125,-2.813,179.312
9.808,30,-134.250,-39.250,14.188,1.000,-0.688,0.563,-0.380,-0.180,-9.510,0.100,-0.070,0.270,-0.480,-0.110,-9.790,268.125,-2.813,179.312
9.832,30,-135.000,-39.250,12.250,1.000,-2.500,-0.063,-0.400,-0.220,-9.530,0.090,-0.100,0.250,-0.490,-0.110,-9.790,268.125,-2.875,179.250
9.873,30,-135.000,-39.250,12.250,-1.750,-4.188,-2.000,-0.380,-0.140,-9.720,0.140,-0.020,0.060,-0.520,-0.110,-9.790,268.062,-3.000,179.312
9.894,30,-134.562,-39.563,12.750,0.000,-1.938,-1.938,-0.420,-0.110,-9.690,0.110,0.000,0.090,-0.530,-0.110,-9.790,268.000,-3.063,179.312
9.917,30,-134.562,-39.563,12.750,1.563,-2.563,-0.875,-0.400,-0.020,-9.560,0.130,0.080,0.220,-0.530,-0.110,-9.790,268.000,-3.125,179.250
9.941,30,-133.875,-39.250,13.563,-1.438,-2.063,-0.750,-0.380,-0.030,-9.610,0.160,0.080,0.170,-0.540,-0.110,-9.790,267.937,-3.125,179.312
9.983,30,-134.250,-39.563,12.750,-0.125,-0.688,-0.125,-0.430,-0.120,-9.620,0.110,0.000,0.160,-0.550,-0.110,-9.790,267.937,-3.188,179.312
10.007,30,-134.250,-39.563,12.750,0.750,-0.250,-0.250,-0.420,-0.170,-9.560,0.130,-0.050,0.220,-0.550,-0.110,-9.790,268.000,-3.188,179.250
10.031,30,-134.250,-39.563,12.750,1.625,-1.875,-0.063,-0.430,-0.140,-9.360,0.120,-0.010,0.420,-0.560,-0.120,-9.780,268.000,-3.250,179.250
10.052,30,-135.375,-39.250,12.750,-0.688,-4.250,-1.125,-0.470,-0.160,-9.560,0.100,-0.040,0.220,-0.580,-0.120,-9.780,267.937,-3.375,179.250
10.109,30,-133.187,-39.563,12.375,-0.438,-3.938,-1.625,-0.530,-0.180,-9.880,0.060,-0.050,-0.090,-0.600,-0.120,-9.780,267.875,-3.500,179.250
10.134,30,-134.562,-39.250,13.188,0.813,-5.188,-1.313,-0.450,-0.100,-9.370,0.170,0.020,0.400,-0.620,-0.120,-9.780,267.812,-3.625,179.250
10.155,30,-134.562,-39.250,13.188,-1.188,-3.063,-1.063,-0.490,0.050,-9.540,0.140,0.180,0.230,-0.640,-0.120,-9.780,267.812,-3.688,179.250
10.179,30,-134.562,-39.250,13.188,-0.688,-3.000,-0.438,-0.530,-0.040,-9.640,0.120,0.090,0.260,-0.640,-0.120,-9.780,267.812,-3.750,179.250
10.221,30,-134.250,-39.250,13.563,2.375,0.000,2.063,-0.560,-0.090,-9.360,0.070,0.030,0.420,-0.640,-0.130,-9.780,267.875,-3.750,179.187
10.244,30,-134.562,-40.000,13.563,0.938,-0.813,0.938,-0.670,-0.220,-9.480,-0.020,-0.080,0.300,-0.640,-0.130,-9.780,267.875,-3.750,179.187
10.267,30,-134.562,-40.000,13.563,0.313,-1.938,-0.500,-0.570,-0.200,-9.570,0.070,-0.060,0.200,-0.650,-0.130,-9.780,267.875,-3.813,179.187
10.31,30,-133.875,-38.500,12.375,4.313,-1.188,0.938,-0.640,-0.130,-9.190,0.010,0.010,0.590,-0.650,-0.150,-9.780,267.937,-3.813,179.063
10.336,30,-133.875,-39.563,13.062,-0.250,0.750,-0.438,-0.640,-0.130,-9.470,0.010,0.020,0.310,-0.650,-0.150,-9.780,267.937,-3.813,179.063
10.36,30,-133.875,-39.563,13.062,0.625,-0.750,-0.438,-0.420,-0.090,-9.600,0.220,0.060,0.170,-0.650,-0.160,-9.780,267.937,-3.813,179.000
10.386,30,-134.250,-39.250,12.750,3.750,0.688,2.313,-0.610,-0.150,-9.450,0.030,0.020,0.320,-0.650,-0.170,-9.780,268.000,-3.813,178.937
10.427,30,-134.250,-39.250,12.750,1.688,-0.375,1.438,-0.410,-0.100,-9.710,0.230,0.080,0.070,-0.650,-0.180,-9.780,268.000,-3.750,178.875
10.448,30,-133.875,-39.250,13.563,2.500,1.500,2.813,-0.480,-0.130,-9.600,0.150,0.050,0.170,-0.640,-0.190,-9.780,268.125,-3.750,178.812
10.471,30,-133.875,-39.250,13.563,2.188,2.188,2.563,-0.480,-0.170,-9.590,0.140,0.030,0.190,-0.630,-0.200,-9.780,268.125,-3.688,178.750
10.504,30,-133.875,-39.250,12.000,-0.250,1.813,3.000,-0.480,-0.230,-9.610,0.140,-0.030,0.160,-0.620,-0.200,-9.780,268.250,-3.625,178.750
10.549,30,-133.562,-39.563,13.687,-1.500,1.313,1.375,-0.420,-0.170,-9.640,0.270,0.040,-0.060,-0.610,-0.200,-9.780,268.313,-3.563,178.812
10.573,30,-133.562,-39.563,13.687,2.375,4.375,3.375,-0.390,-0.200,-9.620,0.200,0.000,0.150,-0.590,-0.200,-9.780,268.375,-3.500,178.750
10.596,30,-134.562,-38.875,13.188,2.250,6.000,3.125,-0.500,-0.240,-9.550,0.070,-0.030,0.230,-0.570,-0.210,-9.780,268.438,-3.375,178.750
10.618,30,-134.562,-38.875,13.188,1.063,4.625,1.688,-0.440,-0.210,-9.670,0.110,0.000,0.110,-0.550,-0.210,-9.780,268.500,-3.188,178.688
10.661,30,-134.562,-38.875,13.563,2.438,3.313,1.688,-0.430,-0.250,-9.440,0.090,-0.020,0.340,-0.530,-0.230,-9.780,268.562,-3.063,178.625
10.686,30,-135.000,-38.875,13.188,-0.313,-0.313,0.188,-0.420,-0.230,-9.490,0.090,0.000,0.280,-0.520,-0.230,-9.780,268.625,-3.063,178.562
10.71,30,-135.000,-38.875,13.188,-1.250,0.125,-0.688,-0.340,-0.180,-9.790,0.190,-0.040,-0.030,-0.520,-0.230,-9.780,268.562,-3.063,178.625
10.754,30,-134.562,-39.250,11.688,1.000,0.688,0.563,-0.420,-0.290,-9.400,0.090,-0.040,0.380,-0.520,-0.240,-9.780,268.625,-3.000,178.500
10.78,30,-134.562,-39.250,11.688,-0.688,0.750,-0.688,-0.420,-0.330,-9.670,0.090,-0.080,0.110,-0.510,-0.240,-9.780,268.625,-3.000,178.562
10.802,30,-134.562,-38.063,12.750,0.313,1.313,-0.250,-0.390,-0.140,-9.580,0.110,0.090,0.200,-0.510,-0.240,-9.790,268.625,-2.938,178.562
10.827,30,-134.562,-38.063,12.750,0.063,0.688,-0.063,-0.380,-0.160,-9.430,0.120,0.080,0.350,-0.500,-0.240,-9.790,268.625,-2.938,178.562
10.87,30,-135.000,-38.500,12.750,0.000,-0.063,0.438,-0.420,-0.250,-9.620,0.070,-0.010,0.160,-0.500,-0.240,-9.790,268.625,-2.938,178.562
10.894,30,-134.562,-39.250,13.062,0.438,0.188,0.563,-0.460,-0.230,-9.430,0.040,0.010,0.350,-0.500,-0.240,-9.790,268.625,-2.938,178.500
10.918,30,-134.562,-39.250,13.062,-0.938,1.750,0.188,-0.400,-0.260,-9.760,0.090,-0.010,0.020,-0.500,-0.240,-9.790,268.625,-2.875,178.562
10.95,30,-134.562,-38.875,13.062,1.125,2.875,1.438,-0.350,-0.200,-9.590,0.130,0.040,0.200,-0.480,-0.240,-9.790,268.687,-2.813,178.500
10.994,30,-134.250,-38.500,12.250,-1.938,0.875,-0.750,-0.420,-0.160,-9.540,0.090,0.080,0.180,-0.480,-0.240,-9.790,268.625,-2.750,178.562
11.015,30,-134.250,-38.500,12.250,-0.688,0.438,-0.750,-0.260,-0.120,-9.610,0.210,0.100,0.170,-0.470,-0.230,-9.790,268.625,-2.750,178.562
11.04,30,-135.687,-38.063,12.375,1.063,0.000,0.938,-0.270,-0.120,-9.570,0.190,0.110,0.210,-0.470,-0.230,-9.790,268.625,-2.750,178.562
11.064,30,-135.687,-38.063,12.375,-0.938,-0.500,1.000,-0.350,-0.300,-9.770,0.120,-0.060,0.010,-0.470,-0.230,-9.790,268.687,-2.750,178.625
11.109,30,-135.000,-38.875,12.750,-0.938,0.688,-1.438,-0.310,-0.260,-9.730,0.150,-0.030,0.050,-0.470,-0.230,-9.790,268.625,-2.688,178.625
11.133,30,-135.000,-38.875,12.750,-0.375,-1.500,-1.438,-0.330,-0.190,-9.470,0.130,0.030,0.310,-0.470,-0.220,-9.790,268.625,-2.750,178.625
11.154,30,-135.000,-38.063,13.062,-1.688,-1.875,-1.500,-0.400,-0.200,-9.500,0.040,0.070,0.220,-0.480,-0.220,-9.790,268.562,-2.750,178.688
11.197,30,-134.562,-39.250,12.750,-0.375,1.250,-1.063,-0.350,-0.090,-9.610,0.120,0.110,0.170,-0.480,-0.210,-9.790,268.500,-2.813,178.750
11.22,30,-134.562,-39.250,12.750,0.625,0.500,0.250,-0.380,-0.080,-9.390,0.090,0.120,0.390,-0.470,-0.210,-9.790,268.500,-2.750,178.750
11.244,30,-134.687,-38.875,13.062,-0.563,-1.250,0.563,-0.420,-0.200,-9.380,0.050,0.000,0.400,-0.480,-0.200,-9.790,268.500,-2.813,178.750
11.269,30,-134.687,-38.875,13.062,-1.750,-0.438,-0.438,-0.410,-0.240,-9.750,0.060,-0.040,0.030,-0.480,-0.200,-9.790,268.500,-2.813,178.750
11.313,30,-134.250,-38.500,11.563,1.375,-0.688,0.938,-0.420,-0.230,-9.580,0.060,0.000,0.350,-0.480,-0.200,-9.790,268.500,-2.813,178.750
11.337,30,-134.250,-38.500,11.563,-0.625,-0.875,0.000,-0.410,-0.260,-9.550,0.080,-0.060,0.230,-0.490,-0.200,-9.790,268.562,-2.875,178.750
11.361,30,-134.562,-38.875,12.250,-0.750,-1.250,-0.375,-0.420,-0.250,-9.550,0.060,-0.050,0.230,-0.490,-0.200,-9.790,268.500,-2.875,178.750
11.39,30,-134.562,-38.875,13.500,-2.375,0.250,-1.938,-0.430,-0.180,-9.650,0.060,0.010,0.130,-0.490,-0.190,-9.790,268.500,-2.875,178.812
11.431,30,-134.562,-38.875,13.500,1.875,-0.125,0.625,-0.420,-0.120,-9.480,0.070,0.070,0.300,-0.500,-0.190,-9.790,268.438,-2.875,178.812
11.452,30,-134.250,-38.500,12.375,1.063,-0.500,0.688,-0.490,-0.290,-9.420,0.000,-0.080,0.360,-0.500,-0.200,-9.790,268.500,-2.875,178.750
11.475,30,-134.250,-38.500,12.375,-1.625,-2.125,-1.563,-0.350,-0.100,-9.700,0.150,0.090,0.090,-0.500,-0.190,-9.790,268.438,-2.938,178.812
11.499,30,-134.250,-38.063,12.750,-1.063,-1.438,-2.750,-0.410,-0.080,-9.490,0.100,0.110,0.290,-0.510,-0.190,-9.790,268.375,-2.938,178.812
11.541,30,-135.375,-38.875,13.875,1.375,-1.188,-0.563,-0.390,-0.150,-9.460,0.120,0.050,0.320,-0.510,-0.200,-9.790,268.375,-2.938,178.750
11.562,30,-135.375,-38.875,13.875,0.188,-2.375,-0.375,-0.350,-0.150,-9.520,0.160,0.050,0.260,-0.510,-0.210,-9.790,268.375,-3.000,178.750
11.586,30,-135.375,-38.875,13.875,-0.125,-0.438,-0.125,-0.360,-0.310,-9.860,0.130,-0.130,0.050,-0.510,-0.210,-9.790,268.375,-3.000,178.750
11.628,30,-133.562,-39.250,12.750,-1.000,-0.750,-1.438,-0.390,-0.280,-9.720,0.120,-0.060,0.060,-0.520,-0.210,-9.790,268.375,-3.000,178.688
11.651,30,-135.000,-39.250,12.250,-0.875,-2.563,-1.563,-0.310,-0.290,-9.610,0.210,-0.070,0.170,-0.520,-0.210,-9.790,268.313,-3.063,178.688
11.675,30,-135.000,-39.250,12.250,-0.375,-1.625,-0.750,-0.460,-0.220,-9.660,0.110,0.010,0.130,-0.530,-0.210,-9.780,268.313,-3.125,178.688
11.699,30,-134.250,-38.875,12.688,-1.250,-1.813,-2.188,-0.370,-0.070,-9.490,0.170,0.130,0.290,-0.540,-0.210,-9.780,268.250,-3.125,178.750
11.741,30,-134.250,-38.875,13.062,0.438,-0.125,-0.063,-0.460,-0.240,-9.510,0.070,-0.030,0.270,-0.530,-0.200,-9.780,268.250,-3.125,178.750
11.765,30,-134.250,-38.875,13.062,-1.188,-1.313,-1.375,-0.430,-0.140,-9.490,0.130,0.070,0.180,-0.540,-0.200,-9.780,268.187,-3.125,178.812
11.789,30,-134.250,-38.875,13.062,-3.063,-0.688,-2.375,-0.340,-0.150,-9.650,0.190,0.030,0.120,-0.540,-0.190,-9.780,268.187,-3.125,178.812
11.81,30,-134.562,-38.875,12.750,1.125,-0.813,0.063,-0.440,-0.290,-9.470,0.090,-0.090,0.310,-0.540,-0.190,-9.780,268.125,-3.188,178.812
11.868,30,-134.562,-37.375,12.688,-2.125,-2.500,-2.313,-0.400,-0.240,-9.460,0.150,-0.060,0.320,-0.560,-0.180,-9.780,268.062,-3.250,178.875
11.893,30,-134.250,-38.875,12.250,-1.063,0.375,-1.438,-0.440,-0.180,-9.650,0.110,0.000,0.130,-0.560,-0.170,-9.780,268.062,-3.250,178.937
11.914,30,-134.250,-38.875,12.250,0.000,-1.063,-1.688,-0.500,-0.110,-9.330,0.060,0.060,0.450,-0.560,-0.170,-9.780,268.000,-3.313,178.937
11.958,30,-135.375,-38.875,13.000,-1.125,-1.813,-1.188,-0.480,-0.140,-9.530,0.090,0.020,0.250,-0.570,-0.170,-9.780,267.937,-3.375,179.000
11.983,30,-135.375,-38.875,13.000,0.000,-1.625,0.313,-0.490,-0.210,-9.420,0.090,-0.040,0.360,-0.580,-0.170,-9.780,267.937,-3.375,179.000
12.006,30,-135.000,-39.250,13.750,-1.063,-1.063,-0.750,-0.480,-0.210,-9.560,0.110,0.000,0.190,-0.580,-0.160,-9.780,267.937,-3.438,179.000
12.03,30,-135.000,-39.250,13.750,-1.125,-0.813,-0.813,-0.460,-0.230,-9.750,0.120,-0.070,0.030,-0.590,-0.160,-9.780,267.937,-3.438,179.000
12.073,30,-134.562,-38.875,11.750,2.125,0.875,0.500,-0.460,-0.090,-9.400,0.120,0.070,0.370,-0.590,-0.170,-9.780,267.937,-3.438,178.937
12.097,30,-134.687,-39.250,12.250,0.750,0.875,0.438,-0.450,-0.080,-9.310,0.090,0.040,0.290,-0.580,-0.170,-9.780,267.937,-3.375,178.937
12.121,30,-134.687,-39.250,12.250,-0.875,-0.688,0.438,-0.480,-0.170,-9.500,0.100,0.000,0.280,-0.580,-0.170,-9.780,267.937,-3.375,178.937
12.147,30,-133.875,-39.250,11.750,-1.313,-1.250,0.000,-0.420,-0.140,-9.690,0.170,0.010,0.090,-0.590,-0.160,-9.780,267.937,-3.438,179.000
12.188,30,-133.875,-39.250,11.750,2.188,-0.500,1.313,-0.480,-0.230,-9.510,0.110,-0.050,0.270,-0.590,-0.170,-9.780,267.937,-3.438,178.937
12.21,30,-134.562,-38.875,13.375,-1.063,-1.625,-0.813,-0.360,-0.090,-9.740,0.230,0.070,0.040,-0.600,-0.170,-9.780,267.937,-3.500,178.937
12.235,30,-134.562,-38.875,13.375,-0.813,-1.563,0.000,-0.350,-0.170,-9.730,0.250,0.000,0.040,-0.600,-0.160,-9.780,267.937,-3.500,179.000
12.268,30,-134.250,-39.563,13.750,-0.625,-0.750,-1.125,-0.510,-0.130,-9.590,0.180,0.070,0.160,-0.600,-0.160,-9.780,267.875,-3.500,179.000
12.312,30,-135.000,-38.875,11.750,1.875,0.813,1.813,-0.500,-0.200,-9.610,0.090,-0.040,0.170,-0.590,-0.160,-9.780,267.937,-3.438,179.000
12.338,30,-135.000,-38.875,11.750,1.313,0.438,0.625,-0.500,-0.240,-9.450,0.090,-0.080,0.330,-0.590,-0.160,-9.780,267.937,-3.438,179.000
12.36,30,-135.000,-39.250,12.688,-1.250,1.375,-1.125,-0.460,-0.140,-9.570,0.120,0.010,0.210,-0.590,-0.160,-9.780,267.937,-3.438,179.000
12.405,30,-135.000,-39.563,12.688,0.563,0.313,0.375,-0.440,-0.080,-9.570,0.140,0.070,0.210,-0.580,-0.160,-9.780,267.937,-3.375,179.000
12.429,30,-135.000,-39.563,12.688,1.313,-0.625,1.625,-0.450,-0.160,-9.400,0.060,-0.030,0.280,-0.580,-0.160,-9.780,267.937,-3.375,179.000
12.453,30,-134.562,-39.250,12.688,0.063,-0.688,0.313,-0.430,-0.270,-9.570,0.140,-0.100,0.210,-0.580,-0.160,-9.780,267.937,-3.438,179.000
12.479,30,-134.562,-39.250,12.688,0.375,0.625,0.375,-0.440,-0.200,-9.610,0.140,-0.100,0.130,-0.580,-0.160,-9.780,267.937,-3.375,179.000
12.522,30,-134.687,-38.063,13.000,-0.313,0.188,-0.063,-0.400,-0.180,-9.640,0.170,-0.010,0.130,-0.570,-0.160,-9.780,267.937,-3.375,179.000
12.547,30,-134.250,-39.250,12.688,0.375,1.000,0.625,-0.440,-0.130,-9.460,0.130,0.030,0.320,-0.570,-0.160,-9.780,267.937,-3.313,179.000
12.571,30,-134.250,-39.250,12.688,0.313,0.625,-0.313,-0.420,-0.180,-9.550,0.150,-0.010,0.230,-0.570,-0.160,-9.780,267.937,-3.313,179.000
12.596,30,-133.875,-40.000,11.063,-0.625,1.000,-0.375,-0.390,-0.130,-9.580,0.170,0.020,0.200,-0.560,-0.160,-9.780,267.937,-3.313,179.000
12.64,30,-133.875,-40.000,11.063,-0.875,0.938,0.813,-0.440,-0.140,-9.520,0.110,0.020,0.260,-0.560,-0.160,-9.780,267.937,-3.188,179.000
12.661,30,-133.875,-38.875,12.688,-1.500,4.250,-0.250,-0.420,-0.140,-9.820,0.140,0.010,0.110,-0.540,-0.150,-9.790,267.937,-3.125,179.063
12.684,30,-133.875,-38.875,12.688,1.250,3.250,1.750,-0.430,-0.140,-9.570,0.090,0.010,0.210,-0.530,-0.160,-9.790,268.000,-3.063,179.000
12.718,30,-135.375,-38.875,13.750,1.813,1.938,0.250,-0.490,-0.200,-9.380,0.010,-0.020,0.400,-0.510,-0.170,-9.790,268.000,-3.000,178.937
12.762,30,-135.375,-39.250,12.688,-2.250,1.750,-0.688,-0.410,-0.200,-9.670,0.090,-0.030,0.120,-0.500,-0.160,-9.790,268.000,-2.938,179.000
12.787,30,-135.375,-39.250,12.688,1.125,0.063,0.625,-0.430,-0.150,-9.400,0.060,0.000,0.380,-0.500,-0.160,-9.790,268.000,-2.938,179.000
12.808,30,-135.687,-38.875,12.250,-0.813,1.000,-0.188,-0.400,-0.110,-9.720,0.090,0.050,0.060,-0.500,-0.160,-9.790,268.000,-2.875,179.000
12.871,30,-134.687,-38.875,11.500,-0.250,-0.063,0.125,-0.420,-0.210,-9.390,0.100,0.010,0.140,-0.490,-0.170,-9.790,268.062,-2.875,178.937
12.895,30,-134.687,-38.875,11.500,-1.438,1.000,-0.750,-0.340,-0.170,-9.680,0.140,0.000,0.110,-0.490,-0.160,-9.790,268.062,-2.875,179.000
12.918,30,-135.687,-40.000,13.750,1.438,-0.250,0.563,-0.410,-0.220,-9.530,0.080,-0.050,0.250,-0.490,-0.170,-9.790,268.062,-2.875,178.937
12.943,30,-135.687,-40.000,13.750,-0.250,-2.563,-0.125,-0.420,-0.210,-9.500,0.060,-0.040,0.280,-0.500,-0.170,-9.790,268.000,-2.938,178.937
12.984,30,-135.000,-38.500,13.000,-0.563,-3.000,-1.188,-0.420,-0.130,-9.510,0.090,0.030,0.270,-0.510,-0.160,-9.790,268.000,-3.000,179.000
13.008,30,-134.562,-39.563,13.000,0.125,-1.313,-0.188,-0.430,-0.190,-9.540,0.080,-0.020,0.240,-0.520,-0.160,-9.790,268.000,-3.000,179.000
13.031,30,-134.562,-39.563,13.000,0.563,-1.625,-0.438,-0.460,-0.220,-9.570,0.060,-0.060,0.210,-0.530,-0.170,-9.790,268.000,-3.063,178.937
13.055,30,-135.000,-38.875,13.750,-0.125,-2.125,-0.375,-0.440,-0.020,-9.460,0.120,0.100,0.190,-0.530,-0.160,-9.790,268.000,-3.125,179.000
13.096,30,-135.000,-38.875,13.750,0.750,-1.250,0.438,-0.440,-0.150,-9.520,0.090,0.010,0.260,-0.540,-0.160,-9.790,268.000,-3.125,179.000
13.13,30,-133.875,-40.000,13.750,-0.375,1.563,0.063,-0.420,-0.170,-9.640,0.150,0.040,0.130,-0.520,-0.160,-9.790,268.000,-3.063,179.000
13.167,30,-135.000,-39.250,12.250,2.250,4.188,2.250,-0.360,-0.160,-9.590,0.070,-0.030,0.270,-0.500,-0.170,-9.790,268.062,-2.875,178.937
13.205,30,-134.250,-38.500,13.500,0.125,2.750,1.875,-0.430,-0.150,-9.390,0.080,0.000,0.240,-0.480,-0.170,-9.790,268.125,-2.813,178.937
13.246,30,-134.250,-38.500,13.500,0.188,3.813,1.313,-0.320,-0.080,-9.650,0.110,0.040,0.220,-0.450,-0.170,-9.790,268.125,-2.625,178.937
13.267,30,-134.562,-38.500,13.750,0.563,3.500,2.438,-0.430,-0.160,-9.590,0.000,0.000,0.190,-0.440,-0.170,-9.790,268.187,-2.563,178.937
13.291,30,-134.562,-38.500,13.750,-0.438,3.750,2.250,-0.370,-0.190,-9.630,0.060,-0.020,0.160,-0.430,-0.170,-9.790,268.250,-2.500,178.937
13.332,30,-134.562,-38.063,12.688,2.438,5.063,2.750,-0.310,-0.140,-9.470,0.080,0.030,0.320,-0.390,-0.180,-9.790,268.375,-2.250,178.875
13.356,30,-135.375,-38.875,13.687,1.188,4.063,2.313,-0.330,-0.140,-9.380,0.090,0.010,0.440,-0.380,-0.180,-9.790,268.438,-2.188,178.875
13.378,30,-135.375,-38.875,13.687,-1.188,3.188,0.875,-0.200,-0.220,-9.720,0.160,-0.040,0.060,-0.370,-0.170,-9.790,268.438,-2.125,178.937
13.404,30,-135.000,-38.500,13.750,1.188,-0.313,1.188,-0.120,-0.180,-9.460,0.190,-0.010,0.380,-0.360,-0.180,-9.790,268.438,-2.125,178.875
13.447,30,-135.000,-38.500,13.750,-1.375,0.063,0.063,-0.170,-0.200,-9.580,0.140,-0.020,0.110,-0.360,-0.170,-9.790,268.500,-2.125,178.937
13.468,30,-134.562,-38.875,12.250,-1.563,1.625,-0.188,-0.160,-0.240,-9.870,0.190,-0.070,-0.070,-0.360,-0.170,-9.790,268.500,-2.125,179.000
13.494,30,-134.562,-38.875,12.250,1.625,2.438,0.438,-0.180,-0.170,-9.730,0.170,0.000,0.050,-0.350,-0.170,-9.790,268.500,-2.063,178.937
13.515,30,-134.250,-39.563,12.188,3.875,1.250,1.000,-0.300,-0.130,-9.300,0.060,0.100,0.590,-0.350,-0.180,-9.790,268.500,-2.000,178.875
13.559,30,-135.000,-39.250,13.188,-1.875,-2.375,-0.938,-0.230,-0.190,-9.590,0.130,-0.010,0.200,-0.360,-0.180,-9.790,268.500,-2.125,178.875
13.583,30,-135.000,-39.250,13.188,-1.750,-2.875,-1.750,-0.200,-0.240,-9.760,0.160,-0.060,0.030,-0.370,-0.170,-9.790,268.438,-2.188,178.937
13.607,30,-135.000,-38.875,13.188,-0.250,-2.750,-1.500,-0.220,-0.260,-9.740,0.150,-0.090,0.050,-0.380,-0.170,-9.790,268.375,-2.250,178.937
13.634,30,-135.000,-38.875,13.188,-1.313,-2.750,-2.188,-0.300,-0.160,-9.660,0.080,0.010,0.120,-0.390,-0.170,-9.790,268.313,-2.313,178.937
13.678,30,-134.562,-38.500,12.500,0.313,1.000,-0.813,-0.420,-0.150,-9.570,-0.020,0.010,0.220,-0.400,-0.170,-9.790,268.313,-2.313,178.937
13.703,30,-135.000,-38.875,11.563,0.375,-1.250,-1.250,-0.350,-0.060,-9.350,0.040,0.100,0.440,-0.400,-0.170,-9.790,268.250,-2.313,178.937
13.727,30,-135.000,-38.875,11.563,-1.375,0.188,-1.875,-0.250,-0.040,-9.530,0.140,0.120,0.250,-0.400,-0.170,-9.790,268.250,-2.313,179.000
13.772,30,-135.000,-38.875,12.063,-1.000,-0.563,0.000,-0.250,-0.250,-9.670,0.140,-0.080,0.110,-0.400,-0.160,-9.790,268.250,-2.313,179.000
13.796,30,-135.000,-38.875,12.063,-0.250,0.000,0.563,-0.320,-0.260,-9.650,0.080,-0.090,0.130,-0.400,-0.160,-9.790,268.250,-2.313,179.000
13.818,30,-135.375,-38.500,11.563,-0.625,1.063,-0.438,-0.230,-0.120,-9.670,0.160,0.030,0.120,-0.400,-0.160,-9.790,268.187,-2.313,179.000
13.843,30,-135.375,-38.500,11.563,1.125,1.125,-0.438,-0.210,-0.070,-9.510,0.170,0.090,0.270,-0.390,-0.160,-9.790,268.187,-2.313,179.000
13.885,30,-135.000,-39.250,12.750,-0.188,0.000,0.500,-0.290,-0.110,-9.410,0.090,0.060,0.370,-0.390,-0.170,-9.790,268.187,-2.250,179.000
13.909,30,-134.250,-38.875,12.500,-0.563,-1.188,0.375,-0.250,-0.160,-9.550,0.140,0.000,0.240,-0.400,-0.160,-9.790,268.187,-2.313,179.000
13.934,30,-134.250,-38.875,12.500,-0.875,-2.688,-0.250,-0.230,-0.220,-9.720,0.170,-0.060,0.070,-0.400,-0.160,-9.790,268.187,-2.375,179.000
13.958,30,-135.687,-38.500,12.063,0.500,-1.938,-0.688,-0.230,-0.270,-9.600,0.170,-0.110,0.180,-0.410,-0.160,-9.790,268.187,-2.438,179.000
13.999,30,-135.687,-38.500,12.063,-2.125,-1.625,-0.938,-0.300,-0.220,-9.700,0.130,-0.060,0.090,-0.430,-0.150,-9.790,268.187,-2.500,179.063
14.02,30,-135.687,-38.875,13.188,-1.500,0.188,-1.125,-0.200,-0.240,-9.720,0.210,-0.080,0.070,-0.420,-0.150,-9.790,268.187,-2.500,179.063
14.045,30,-135.687,-38.875,13.188,2.438,0.750,-0.063,-0.350,-0.170,-9.440,0.060,-0.010,0.350,-0.420,-0.160,-9.790,268.187,-2.438,179.000
14.066,30,-135.000,-38.875,12.063,-0.500,-1.438,-1.688,-0.340,-0.110,-9.320,0.080,0.040,0.470,-0.430,-0.160,-9.790,268.125,-2.500,179.000
14.122,30,-135.687,-38.875,12.063,1.688,-0.438,-0.125,-0.310,-0.180,-9.580,0.110,-0.030,0.200,-0.430,-0.140,-9.790,268.062,-2.500,179.063
14.148,30,-135.687,-38.875,12.063,2.688,-0.313,-0.188,-0.440,-0.150,-9.310,-0.010,0.000,0.470,-0.430,-0.150,-9.790,268.062,-2.500,179.063
14.169,30,-134.562,-39.563,13.188,-1.563,-2.313,-1.813,-0.300,-0.060,-9.570,0.140,0.080,0.210,-0.440,-0.150,-9.790,268.000,-2.563,179.063
14.214,30,-135.000,-38.875,12.750,1.688,-1.625,-0.438,-0.400,-0.190,-9.500,0.050,-0.050,0.290,-0.450,-0.140,-9.790,267.937,-2.688,179.125
14.239,30,-135.000,-38.875,12.750,1.688,-3.375,-0.313,-0.390,-0.170,-9.370,0.090,-0.020,0.270,-0.470,-0.140,-9.790,267.937,-2.750,179.063
14.263,30,-135.000,-38.875,11.563,-2.375,-4.000,-2.063,-0.340,-0.140,-9.700,0.140,0.000,0.080,-0.480,-0.140,-9.790,267.875,-2.813,179.125
14.284,30,-135.000,-38.875,11.563,-1.625,-2.875,-2.750,-0.300,-0.110,-9.730,0.190,0.020,0.050,-0.490,-0.130,-9.790,267.875,-2.875,179.187
14.329,30,-135.375,-38.875,12.500,0.688,-3.813,-1.875,-0.450,-0.060,-9.370,0.070,0.080,0.380,-0.520,-0.140,-9.790,267.750,-3.000,179.125
14.353,30,-135.375,-38.875,12.500,-1.625,-5.000,-2.813,-0.420,0.000,-9.420,0.140,0.110,0.240,-0.530,-0.130,-9.790,267.687,-3.125,179.187
14.374,30,-135.687,-38.500,12.688,-1.000,-3.313,-1.313,-0.450,-0.080,-9.710,0.090,0.040,0.070,-0.540,-0.130,-9.790,267.687,-3.188,179.187
14.399,30,-135.687,-38.500,12.688,0.500,-3.188,-0.500,-0.470,-0.180,-9.590,0.080,-0.050,0.190,-0.550,-0.130,-9.780,267.625,-3.250,179.187
14.44,30,-135.000,-38.500,13.062,1.000,0.438,0.250,-0.350,-0.090,-9.740,0.160,0.020,0.120,-0.550,-0.130,-9.780,267.625,-3.250,179.187
14.464,30,-134.562,-40.000,12.250,0.688,3.688,1.625,-0.400,-0.060,-9.720,0.140,0.060,0.060,-0.540,-0.130,-9.790,267.687,-3.125,179.187
14.485,30,-134.562,-40.000,12.250,1.938,5.688,2.563,-0.410,-0.120,-9.560,0.100,0.010,0.220,-0.520,-0.130,-9.790,267.687,-3.000,179.187
14.53,30,-134.687,-39.563,12.000,0.563,3.438,2.063,-0.430,-0.160,-9.420,0.060,-0.020,0.400,-0.480,-0.140,-9.790,267.812,-2.813,179.125
14.56,30,-133.875,-39.250,13.062,-1.125,4.563,1.063,-0.420,-0.160,-9.610,0.040,-0.020,0.170,-0.470,-0.140,-9.790,267.875,-2.688,179.125
14.581,30,-133.875,-39.250,13.062,0.250,3.938,1.188,-0.370,-0.130,-9.620,0.080,0.040,0.190,-0.450,-0.140,-9.790,267.875,-2.625,179.125
14.605,30,-133.875,-39.250,13.062,2.125,2.188,2.188,-0.350,-0.120,-9.330,0.080,0.020,0.450,-0.440,-0.140,-9.790,267.937,-2.563,179.125
14.646,30,-135.375,-39.250,12.688,-0.750,0.000,0.250,-0.250,-0.290,-9.550,0.190,-0.140,0.230,-0.440,-0.140,-9.790,268.000,-2.563,179.125
14.668,30,-135.000,-39.250,12.000,0.188,-0.250,-0.188,-0.300,-0.270,-9.660,0.130,-0.120,0.120,-0.440,-0.150,-9.790,268.000,-2.563,179.063
14.692,30,-135.000,-39.250,12.000,-0.625,-2.250,-0.375,-0.330,-0.190,-9.570,0.110,-0.040,0.210,-0.440,-0.140,-9.790,268.000,-2.563,179.125
14.716,30,-134.250,-39.250,11.875,-0.313,-1.000,-0.375,-0.330,-0.220,-9.680,0.110,-0.070,0.100,-0.450,-0.140,-9.790,268.000,-2.625,179.125
14.757,30,-134.562,-38.063,12.375,0.375,-0.750,-0.125,-0.420,-0.110,-9.490,0.030,0.030,0.290,-0.450,-0.150,-9.790,268.000,-2.625,179.063
14.781,30,-134.562,-38.063,12.375,-0.438,-1.063,-0.438,-0.390,-0.040,-9.520,0.090,0.090,0.290,-0.460,-0.150,-9.790,268.000,-2.688,179.063
14.805,30,-134.562,-38.063,12.375,0.188,-1.000,0.313,-0.320,-0.110,-9.600,0.130,0.020,0.180,-0.460,-0.140,-9.790,268.000,-2.688,179.125
14.829,30,-135.375,-39.563,11.500,0.313,-0.750,0.688,-0.330,-0.160,-9.580,0.130,-0.010,0.200,-0.460,-0.140,-9.790,268.000,-2.688,179.125
14.873,30,-134.562,-38.875,13.062,-0.438,0.063,0.063,-0.260,-0.150,-9.760,0.200,0.000,0.020,-0.460,-0.140,-9.790,268.000,-2.688,179.125
14.898,30,-134.562,-38.875,13.062,1.063,-0.313,0.250,-0.290,-0.190,-9.530,0.160,-0.040,0.250,-0.460,-0.150,-9.790,268.000,-2.688,179.063
14.919,30,-135.375,-38.875,10.750,0.000,0.063,-0.688,-0.420,-0.150,-9.500,0.030,0.000,0.290,-0.450,-0.150,-9.790,267.937,-2.625,179.063
14.963,30,-135.375,-38.875,12.000,-0.688,-1.750,-1.188,-0.300,-0.050,-9.440,0.160,0.090,0.340,-0.460,-0.140,-9.790,267.875,-2.688,179.125
14.984,30,-135.375,-38.875,12.000,-1.125,-0.563,-0.750,-0.320,-0.210,-9.670,0.130,-0.070,0.120,-0.460,-0.140,-9.790,267.875,-2.688,179.125
15.019,30,-135.000,-39.250,12.688,-0.438,-1.625,-0.500,-0.410,-0.240,-9.550,0.060,-0.100,0.230,-0.470,-0.140,-9.790,267.875,-2.750,179.125
15.044,30,-135.000,-39.250,12.688,-1.438,-0.938,-1.500,-0.350,-0.140,-9.720,0.120,0.000,0.060,-0.470,-0.130,-9.790,267.875,-2.750,179.125
15.087,30,-135.000,-39.250,12.375,0.375,0.938,-0.375,-0.430,-0.120,-9.560,0.040,0.010,0.220,-0.470,-0.130,-9.790,267.812,-2.750,179.187
15.113,30,-134.687,-40.000,12.688,-0.125,0.750,-0.313,-0.420,-0.080,-9.510,0.070,0.030,0.280,-0.470,-0.130,-9.790,267.812,-2.750,179.187
15.136,30,-134.687,-40.000,12.688,-0.125,1.500,-0.313,-0.390,-0.020,-9.520,0.070,0.100,0.270,-0.460,-0.130,-9.790,267.812,-2.688,179.187
15.16,30,-135.000,-39.563,11.500,-0.688,0.438,0.750,-0.420,-0.060,-9.460,0.040,0.070,0.330,-0.460,-0.130,-9.790,267.812,-2.688,179.187
15.204,30,-135.000,-39.563,11.500,0.688,0.875,1.188,-0.350,-0.120,-9.590,0.100,0.000,0.200,-0.460,-0.120,-9.790,267.875,-2.625,179.187
15.225,30,-134.562,-40.000,12.000,0.688,4.188,0.813,-0.370,-0.140,-9.640,0.120,0.010,0.210,-0.440,-0.130,-9.790,267.875,-2.563,179.187
15.248,30,-134.562,-40.000,12.000,0.938,2.438,1.063,-0.250,-0.080,-9.440,0.170,0.040,0.350,-0.430,-0.130,-9.790,267.875,-2.500,179.187
15.271,30,-135.687,-38.875,13.062,0.313,1.625,0.813,-0.310,-0.110,-9.560,0.100,0.010,0.220,-0.420,-0.130,-9.790,267.937,-2.438,179.187
15.315,30,-134.687,-39.563,12.688,0.063,1.063,0.188,-0.320,-0.230,-9.600,0.090,-0.090,0.190,-0.420,-0.130,-9.790,267.937,-2.438,179.187
15.34,30,-134.687,-39.563,12.688,-0.750,-0.625,-1.500,-0.270,-0.200,-9.530,0.140,-0.060,0.250,-0.420,-0.130,-9.790,267.937,-2.438,179.187
15.364,30,-135.000,-38.875,12.375,-1.625,-1.125,-2.313,-0.250,-0.140,-9.710,0.170,-0.010,0.080,-0.420,-0.120,-9.790,267.875,-2.500,179.187
15.405,30,-135.000,-38.875,12.375,-1.125,-1.875,-1.438,-0.360,-0.070,-9.560,0.070,0.050,0.230,-0.430,-0.120,-9.790,267.812,-2.563,179.250
15.426,30,-135.375,-39.563,12.375,-0.688,-2.250,-1.000,-0.370,-0.140,-9.630,0.070,-0.020,0.160,-0.440,-0.120,-9.790,267.812,-2.563,179.250
15.451,30,-135.375,-39.563,12.375,0.750,-1.313,-0.625,-0.380,-0.060,-9.420,0.060,0.060,0.360,-0.450,-0.120,-9.790,267.750,-2.625,179.250
15.483,30,-134.562,-38.875,12.688,-1.438,-0.500,-0.188,-0.350,-0.060,-9.660,0.090,0.060,0.130,-0.450,-0.120,-9.790,267.750,-2.625,179.250
15.528,30,-135.000,-39.250,11.500,0.125,1.750,0.625,-0.390,-0.110,-9.690,0.050,0.000,0.090,-0.440,-0.120,-9.790,267.812,-2.563,179.250
15.554,30,-135.000,-39.250,11.500,1.188,1.875,0.938,-0.330,-0.050,-9.500,0.100,0.070,0.280,-0.440,-0.120,-9.790,267.812,-2.563,179.250
15.575,30,-134.687,-38.500,12.000,1.563,1.313,1.188,-0.390,-0.090,-9.440,0.080,0.070,0.400,-0.430,-0.130,-9.790,267.812,-2.500,179.187
15.599,30,-134.687,-38.500,12.000,-0.563,0.563,0.625,-0.340,-0.080,-9.500,0.080,0.040,0.280,-0.430,-0.130,-9.790,267.875,-2.500,179.187
15.642,30,-135.687,-39.250,12.375,1.563,0.250,2.000,-0.260,-0.130,-9.680,0.170,0.000,0.110,-0.430,-0.130,-9.790,267.937,-2.500,179.187
15.666,30,-134.687,-39.250,12.688,1.875,1.313,2.063,-0.320,-0.170,-9.490,0.100,-0.030,0.300,-0.430,-0.130,-9.790,267.937,-2.500,179.125
15.687,30,-134.687,-39.250,12.688,-0.625,2.125,0.813,-0.200,-0.160,-9.670,0.210,-0.020,0.120,-0.420,-0.130,-9.790,267.937,-2.438,179.187
15.712,30,-135.000,-39.250,12.000,1.125,-0.375,0.875,-0.210,-0.220,-9.720,0.200,-0.080,0.060,-0.420,-0.140,-9.790,268.000,-2.438,179.125
15.756,30,-135.000,-39.250,12.000,0.188,0.813,-0.125,-0.350,-0.240,-9.480,0.060,-0.100,0.310,-0.420,-0.140,-9.790,268.000,-2.438,179.125
15.778,30,-135.000,-39.250,11.500,-1.063,-1.625,-1.375,-0.250,-0.120,-9.470,0.170,0.010,0.320,-0.420,-0.140,-9.790,267.937,-2.500,179.125
15.803,30,-135.000,-39.250,11.500,-1.375,-0.875,-1.125,-0.310,-0.060,-9.690,0.110,0.070,0.100,-0.430,-0.130,-9.790,267.937,-2.500,179.125
15.844,30,-134.562,-39.250,12.000,0.938,-0.313,0.250,-0.310,-0.190,-9.510,0.120,-0.050,0.270,-0.440,-0.130,-9.790,267.937,-2.563,179.125
15.868,30,-134.562,-38.875,12.250,0.688,-0.813,0.063,-0.350,-0.110,-9.410,0.090,0.020,0.370,-0.440,-0.140,-9.790,267.937,-2.563,179.125
15.893,30,-134.562,-38.875,12.250,-2.313,1.313,-1.438,-0.270,-0.110,-9.840,0.170,0.020,-0.040,-0.440,-0.130,-9.790,267.875,-2.563,179.187
15.917,30,-135.375,-38.875,12.250,0.500,0.250,-0.063,-0.270,-0.030,-9.540,0.160,0.090,0.250,-0.430,-0.130,-9.790,267.875,-2.563,179.187
15.972,30,-135.375,-39.250,11.375,-1.000,-1.000,0.313,-0.310,-0.140,-9.490,0.120,-0.010,0.300,-0.440,-0.130,-9.790,267.875,-2.563,179.187
15.998,30,-135.375,-39.250,11.375,-0.938,0.875,0.000,-0.380,-0.160,-9.610,0.150,-0.090,0.090,-0.430,-0.120,-9.790,267.875,-2.563,179.187
16.022,30,-134.250,-39.250,11.063,-1.750,0.563,-1.063,-0.270,-0.170,-9.630,0.160,-0.040,0.150,-0.430,-0.120,-9.790,267.875,-2.563,179.250
16.044,30,-134.250,-39.250,11.063,1.188,-0.313,0.063,-0.400,-0.060,-9.400,0.030,0.060,0.380,-0.430,-0.120,-9.790,267.875,-2.563,179.250
16.088,30,-136.063,-38.875,11.875,-0.563,-1.000,-1.063,-0.210,-0.050,-9.490,0.180,0.070,0.330,-0.440,-0.120,-9.790,267.812,-2.563,179.250
16.112,30,-136.063,-38.875,11.875,0.438,-0.438,0.563,-0.390,-0.220,-9.510,0.050,-0.100,0.270,-0.440,-0.120,-9.790,267.812,-2.563,179.250
16.136,30,-135.687,-40.000,13.375,-0.063,-2.438,-0.125,-0.370,-0.170,-9.470,0.070,-0.050,0.320,-0.450,-0.120,-9.790,267.812,-2.625,179.250
16.16,30,-135.687,-40.000,13.375,-1.563,-2.125,-1.688,-0.310,-0.220,-9.660,0.130,-0.100,0.130,-0.460,-0.110,-9.790,267.812,-2.688,179.312
16.201,30,-135.687,-39.563,12.250,0.563,-4.125,-1.813,-0.380,-0.040,-9.320,0.100,0.060,0.470,-0.480,-0.110,-9.790,267.750,-2.813,179.250
16.225,30,-135.000,-38.875,12.563,-2.188,-5.063,-2.750,-0.380,-0.090,-9.620,0.120,0.010,0.160,-0.500,-0.110,-9.790,267.687,-2.938,179.312
16.249,30,-135.000,-38.875,12.563,-2.188,-6.063,-2.875,-0.330,-0.140,-9.700,0.150,-0.070,0.090,-0.530,-0.100,-9.790,267.562,-3.125,179.375
16.293,30,-135.687,-39.563,13.062,-3.313,-4.375,-3.500,-0.420,-0.040,-9.940,0.160,0.040,-0.160,-0.580,-0.090,-9.780,267.500,-3.375,179.437
16.319,30,-134.250,-39.563,13.375,-1.813,-3.250,-3.188,-0.350,0.040,-9.770,0.230,0.130,0.010,-0.590,-0.080,-9.780,267.438,-3.438,179.500
16.34,30,-134.250,-39.563,13.375,-0.750,-0.500,-1.000,-0.400,0.050,-9.560,0.140,0.110,0.220,-0.580,-0.070,-9.780,267.375,-3.438,179.500
16.364,30,-134.250,-39.563,13.375,-1.688,3.375,0.813,-0.400,-0.020,-9.790,0.170,0.040,0.000,-0.570,-0.070,-9.780,267.375,-3.313,179.562
16.405,30,-134.562,-39.563,11.375,0.250,6.250,1.875,-0.430,-0.100,-9.420,0.090,-0.030,0.360,-0.520,-0.070,-9.790,267.500,-3.063,179.562
16.44,30,-134.687,-40.000,13.062,-1.125,4.313,1.000,-0.410,-0.090,-9.630,0.100,-0.080,0.240,-0.500,-0.070,-9.790,267.500,-2.938,179.562
16.464,30,-134.687,-40.000,13.062,0.750,1.875,0.563,-0.360,-0.210,-9.410,0.060,-0.080,0.350,-0.490,-0.070,-9.790,267.500,-2.875,179.562
16.485,30,-134.562,-39.563,12.563,0.938,-0.063,-0.563,-0.430,-0.150,-9.460,0.060,-0.070,0.330,-0.490,-0.070,-9.790,267.500,-2.875,179.500
16.53,30,-134.687,-39.563,13.062,-0.938,-1.000,-1.688,-0.380,-0.070,-9.670,0.120,0.000,0.110,-0.500,-0.070,-9.790,267.438,-2.938,179.500
16.553,30,-134.687,-39.563,13.062,1.438,-3.375,-0.313,-0.430,-0.050,-9.540,0.080,0.020,0.240,-0.510,-0.070,-9.790,267.438,-3.000,179.500
16.577,30,-134.250,-39.250,12.250,0.000,-1.750,-1.250,-0.340,-0.080,-9.710,0.180,0.000,0.080,-0.520,-0.070,-9.790,267.438,-3.000,179.500
16.6,30,-134.250,-39.250,12.250,1.875,-1.563,0.250,-0.330,0.090,-9.380,0.180,0.180,0.400,-0.520,-0.080,-9.790,267.438,-3.063,179.500
16.644,30,-134.250,-39.250,13.375,1.000,-1.563,-0.563,-0.420,-0.160,-9.670,0.110,-0.080,0.110,-0.530,-0.080,-9.790,267.438,-3.125,179.437
16.668,30,-134.250,-39.250,13.375,1.500,-0.688,-1.063,-0.410,-0.030,-9.570,0.120,0.050,0.210,-0.530,-0.090,-9.790,267.375,-3.125,179.437
16.689,30,-133.875,-39.563,11.375,1.688,-1.375,0.000,-0.350,0.000,-9.600,0.180,0.100,0.180,-0.540,-0.090,-9.790,267.375,-3.125,179.375
16.732,30,-134.562,-39.250,12.250,0.688,0.438,0.250,-0.430,-0.100,-9.580,0.110,0.000,0.250,-0.530,-0.100,-9.790,267.375,-3.125,179.375
16.756,30,-134.562,-39.250,12.250,-0.875,2.750,-0.625,-0.390,-0.110,-9.770,0.130,-0.010,0.010,-0.520,-0.090,-9.790,267.375,-3.063,179.375
16.779,30,-135.000,-39.250,11.875,1.250,0.500,1.063,-0.360,-0.070,-9.510,0.150,0.030,0.270,-0.520,-0.100,-9.790,267.375,-3.063,179.375
16.802,30,-135.000,-39.250,11.875,0.375,2.500,1.250,-0.370,-0.150,-9.670,0.120,-0.050,0.180,-0.510,-0.100,-9.790,267.438,-3.000,179.375
16.845,30,-134.562,-38.875,13.375,0.000,2.875,-0.125,-0.310,-0.140,-9.600,0.170,-0.030,0.180,-0.490,-0.100,-9.790,267.438,-2.875,179.375
16.881,30,-135.375,-39.250,12.563,1.750,1.938,1.438,-0.380,-0.120,-9.440,0.090,0.000,0.340,-0.470,-0.110,-9.790,267.500,-2.750,179.312
16.905,30,-135.375,-39.250,12.563,-1.375,-1.188,-0.063,-0.400,-0.160,-9.450,0.070,-0.050,0.340,-0.470,-0.100,-9.790,267.500,-2.750,179.312
16.928,30,-135.375,-39.563,12.250,-0.563,-1.500,-0.625,-0.280,-0.160,-9.860,0.190,-0.060,-0.060,-0.480,-0.100,-9.790,267.438,-2.750,179.375
16.972,30,-135.000,-39.250,12.563,1.438,-1.063,0.750,-0.480,-0.220,-9.320,0.000,-0.110,0.460,-0.490,-0.110,-9.790,267.500,-2.875,179.312
16.993,30,-135.000,-39.250,12.563,-3.250,-1.500,-2.625,-0.390,-0.140,-9.610,0.170,0.040,0.070,-0.490,-0.100,-9.790,267.438,-2.875,179.375
17.017,30,-135.000,-39.250,12.563,-1.563,-2.063,-1.750,-0.280,0.000,-9.670,0.220,0.100,0.120,-0.500,-0.100,-9.790,267.438,-2.938,179.375
17.058,30,-135.000,-39.563,13.000,-0.625,-1.500,-0.688,-0.450,-0.200,-9.400,0.060,-0.090,0.380,-0.510,-0.100,-9.790,267.438,-3.000,179.375
17.081,30,-135.000,-39.250,12.250,-1.438,-2.313,-1.875,-0.410,-0.200,-9.650,0.100,-0.100,0.130,-0.510,-0.100,-9.790,267.375,-3.063,179.375
17.103,30,-135.000,-39.250,12.250,-1.188,-4.063,-1.625,-0.420,-0.070,-9.550,0.110,0.020,0.230,-0.530,-0.090,-9.790,267.313,-3.125,179.375
17.127,30,-134.250,-38.875,13.375,-1.063,-4.063,-2.250,-0.410,-0.030,-9.570,0.130,0.050,0.210,-0.550,-0.090,-9.790,267.313,-3.188,179.437
17.168,30,-134.250,-38.875,13.375,-0.313,-2.125,-0.375,-0.420,-0.020,-9.660,0.130,0.060,0.120,-0.560,-0.090,-9.780,267.250,-3.250,179.437
17.189,30,-135.375,-40.000,13.000,0.563,-0.375,0.813,-0.430,-0.010,-9.490,0.130,0.080,0.290,-0.560,-0.090,-9.780,267.313,-3.313,179.437
17.214,30,-135.375,-40.000,13.000,-0.625,1.000,0.563,-0.390,-0.020,-9.640,0.170,0.060,0.140,-0.560,-0.090,-9.790,267.313,-3.250,179.437
17.236,30,-134.562,-39.250,13.375,0.750,-0.125,1.250,-0.440,-0.220,-9.550,0.110,-0.120,0.230,-0.560,-0.090,-9.790,267.313,-3.250,179.437
17.281,30,-135.000,-38.875,11.875,-2.563,-0.688,-1.375,-0.420,-0.110,-9.760,0.140,-0.010,0.020,-0.560,-0.090,-9.790,267.313,-3.250,179.437
17.304,30,-135.000,-38.875,11.875,-0.125,-0.688,-0.563,-0.350,-0.040,-9.640,0.180,0.010,0.210,-0.560,-0.090,-9.790,267.313,-3.250,179.437
17.332,30,-134.562,-38.875,13.375,1.438,-0.250,1.000,-0.450,-0.070,-9.380,0.100,0.020,0.400,-0.560,-0.090,-9.790,267.313,-3.250,179.437
17.356,30,-134.562,-38.875,13.375,-1.125,-1.125,-0.063,-0.400,-0.030,-9.670,0.160,0.050,0.110,-0.560,-0.090,-9.780,267.313,-3.250,179.437
17.4,30,-134.687,-38.500,12.250,0.313,-0.875,0.500,-0.460,-0.150,-9.490,0.100,-0.060,0.290,-0.560,-0.090,-9.780,267.375,-3.313,179.375
17.425,30,-134.687,-39.563,14.188,-2.188,-1.813,-0.938,-0.420,-0.190,-9.620,0.140,-0.100,0.160,-0.570,-0.090,-9.780,267.313,-3.313,179.437
17.446,30,-134.687,-39.563,14.188,-0.938,-1.938,-0.813,-0.450,-0.100,-9.620,0.120,-0.010,0.150,-0.580,-0.080,-9.780,267.313,-3.375,179.437
17.491,30,-135.375,-39.250,13.750,0.063,-1.375,-0.875,-0.400,-0.010,-9.690,0.180,0.060,0.090,-0.590,-0.080,-9.780,267.250,-3.438,179.437
17.516,30,-135.375,-39.250,13.750,2.125,-1.625,0.500,-0.390,-0.050,-9.530,0.200,0.030,0.240,-0.590,-0.090,-9.780,267.313,-3.500,179.375
17.537,30,-134.687,-40.250,13.375,1.563,-2.125,1.063,-0.510,-0.040,-9.320,0.090,0.050,0.460,-0.600,-0.090,-9.780,267.313,-3.500,179.375
17.564,30,-134.687,-40.250,13.375,-2.563,0.688,-1.000,-0.410,-0.080,-9.780,0.190,0.000,0.000,-0.600,-0.090,-9.780,267.313,-3.500,179.437
17.606,30,-133.875,-39.563,13.375,0.688,1.125,0.188,-0.470,-0.210,-9.640,0.120,-0.040,0.240,-0.600,-0.090,-9.780,267.313,-3.500,179.437
17.63,30,-135.000,-39.563,11.875,-0.688,1.000,-0.938,-0.450,0.010,-9.460,0.140,0.100,0.320,-0.590,-0.080,-9.780,267.250,-3.500,179.437
17.656,30,-135.000,-39.563,11.875,-2.375,1.188,-1.313,-0.410,-0.030,-9.620,0.170,0.010,0.090,-0.590,-0.080,-9.780,267.250,-3.438,179.500
17.68,30,-135.000,-39.563,12.250,1.813,-0.313,1.063,-0.460,-0.120,-9.460,0.130,-0.040,0.320,-0.590,-0.080,-9.780,267.250,-3.438,179.437
17.725,30,-135.000,-39.250,11.875,-1.063,0.813,-1.125,-0.470,-0.150,-9.670,0.110,-0.070,0.110,-0.580,-0.080,-9.780,267.250,-3.438,179.500
17.749,30,-135.000,-39.250,11.875,0.563,-0.563,-0.188,-0.440,-0.020,-9.510,0.130,0.060,0.270,-0.580,-0.080,-9.780,267.250,-3.438,179.500
17.775,30,-135.000,-39.563,11.063,0.313,0.375,0.125,-0.430,-0.080,-9.420,0.140,0.000,0.360,-0.580,-0.080,-9.780,267.250,-3.375,179.500
17.81,30,-135.000,-39.563,11.063,0.000,-1.688,0.063,-0.470,-0.110,-9.560,0.110,-0.030,0.220,-0.580,-0.080,-9.780,267.250,-3.438,179.500
17.853,30,-135.000,-39.250,12.250,0.438,0.375,-0.188,-0.430,-0.070,-9.530,0.150,0.000,0.250,-0.590,-0.080,-9.780,267.250,-3.438,179.500
17.878,30,-133.875,-40.000,13.062,-1.250,0.563,0.188,-0.400,-0.060,-9.700,0.180,0.010,0.080,-0.590,-0.070,-9.780,267.250,-3.438,179.500
17.902,30,-133.875,-40.000,13.062,0.438,1.438,0.813,-0.420,-0.070,-9.740,0.160,0.000,0.030,-0.590,-0.070,-9.780,267.250,-3.438,179.500
17.948,30,-134.562,-39.563,12.563,1.688,1.063,1.250,-0.410,-0.040,-9.410,0.200,0.060,0.380,-0.580,-0.090,-9.780,267.313,-3.375,179.437
17.973,30,-134.562,-39.563,12.563,0.250,-0.313,0.125,-0.300,-0.090,-9.520,0.270,0.000,0.260,-0.580,-0.090,-9.780,267.313,-3.375,179.437
17.998,30,-135.687,-39.250,11.875,-1.938,-2.500,0.313,-0.330,-0.150,-9.730,0.230,-0.130,-0.070,-0.580,-0.080,-9.780,267.313,-3.438,179.437
18.024,30,-134.562,-39.563,11.375,-0.563,-0.063,-0.188,-0.390,-0.320,-9.930,0.190,-0.230,-0.140,-0.590,-0.080,-9.780,267.313,-3.438,179.500
18.068,30,-134.562,-39.563,11.375,0.875,1.063,-1.000,-0.450,-0.020,-9.360,0.120,0.060,0.420,-0.580,-0.090,-9.780,267.250,-3.375,179.437
18.089,30,-134.562,-39.250,10.250,-1.438,-0.438,-1.688,-0.470,-0.020,-9.470,0.110,0.060,0.310,-0.580,-0.080,-9.780,267.250,-3.375,179.437
18.113,30,-134.562,-39.250,10.250,-1.313,-2.125,-0.938,-0.530,-0.030,-9.540,0.050,0.040,0.240,-0.590,-0.080,-9.780,267.250,-3.438,179.500
18.136,30,-133.875,-40.000,11.875,-0.625,-2.063,-0.688,-0.480,-0.050,-9.560,0.110,0.020,0.220,-0.600,-0.080,-9.780,267.188,-3.500,179.500
18.179,30,-135.000,-39.563,13.000,-1.625,-1.063,-0.125,-0.550,-0.130,-9.670,0.050,-0.050,0.110,-0.610,-0.080,-9.780,267.188,-3.563,179.500
18.2,30,-135.000,-39.563,13.000,-0.625,-1.625,-0.500,-0.440,-0.060,-9.570,0.170,0.010,0.210,-0.610,-0.070,-9.780,267.188,-3.563,179.500
18.225,30,-135.000,-39.563,13.000,1.375,2.438,0.563,-0.500,-0.010,-9.550,0.110,0.060,0.230,-0.610,-0.080,-9.780,267.250,-3.563,179.500
18.259,30,-134.687,-39.250,12.563,1.188,0.813,2.250,-0.510,-0.030,-9.430,0.050,0.000,0.320,-0.600,-0.090,-9.780,267.313,-3.500,179.437
18.302,30,-134.250,-40.250,11.875,0.438,0.438,1.125,-0.420,-0.050,-9.490,0.170,0.040,0.280,-0.600,-0.090,-9.780,267.375,-3.500,179.437
18.327,30,-134.250,-37.375,11.375,0.250,0.938,1.375,-0.420,-0.120,-9.730,0.170,-0.030,0.040,-0.600,-0.090,-9.780,267.375,-3.500,179.437
18.348,30,-134.250,-37.375,11.375,0.375,0.438,1.938,-0.420,-0.140,-9.760,0.160,-0.050,0.020,-0.590,-0.090,-9.780,267.438,-3.438,179.437
18.392,30,-135.000,-39.563,13.375,1.813,3.125,1.250,-0.420,-0.130,-9.310,0.140,-0.030,0.470,-0.570,-0.100,-9.780,267.500,-3.313,179.312
18.417,30,-135.000,-39.563,13.375,0.500,2.438,0.938,-0.440,-0.040,-9.510,0.120,0.060,0.270,-0.560,-0.110,-9.780,267.500,-3.313,179.312
18.439,30,-135.375,-39.563,12.250,-1.188,2.000,-0.563,-0.340,-0.030,-9.620,0.210,0.070,0.160,-0.550,-0.100,-9.790,267.500,-3.188,179.312
18.462,30,-135.375,-39.563,12.250,1.000,1.750,0.813,-0.410,-0.080,-9.520,0.130,0.020,0.260,-0.540,-0.110,-9.790,267.500,-3.188,179.312
18.506,30,-135.000,-38.500,11.063,-0.938,0.438,0.125,-0.400,-0.090,-9.640,0.140,0.010,0.140,-0.540,-0.110,-9.790,267.562,-3.125,179.312
18.531,30,-133.875,-39.563,13.375,-0.063,-0.063,0.563,-0.390,-0.100,-9.600,0.140,0.000,0.190,-0.540,-0.110,-9.790,267.562,-3.125,179.312
18.555,30,-133.875,-39.563,13.375,0.063,2.250,0.375,-0.380,-0.200,-9.640,0.150,-0.090,0.140,-0.530,-0.110,-9.790,267.562,-3.063,179.312
18.581,30,-135.687,-38.875,12.250,0.125,1.375,0.063,-0.340,-0.130,-9.680,0.170,-0.020,0.110,-0.520,-0.110,-9.790,267.562,-3.000,179.312
18.622,30,-135.687,-38.875,12.250,1.188,1.750,0.688,-0.390,-0.110,-9.450,0.110,0.000,0.330,-0.500,-0.110,-9.790,267.562,-2.938,179.312
18.643,30,-134.687,-38.875,13.375,0.563,2.125,0.313,-0.420,-0.130,-9.500,0.130,-0.030,0.310,-0.490,-0.110,-9.790,267.562,-2.875,179.312
18.666,30,-134.687,-38.875,13.375,0.125,0.188,-0.813,-0.360,-0.140,-9.540,0.130,-0.020,0.250,-0.490,-0.110,-9.790,267.562,-2.875,179.312
18.689,30,-135.375,-38.875,13.375,0.500,-2.063,-0.750,-0.420,-0.180,-9.440,0.070,-0.060,0.340,-0.500,-0.110,-9.790,267.562,-2.938,179.250
18.744,30,-135.375,-38.875,12.250,-2.000,-1.000,-1.938,-0.340,-0.070,-9.700,0.160,0.030,0.090,-0.510,-0.100,-9.790,267.438,-3.000,179.312
18.769,30,-135.375,-38.875,12.250,1.625,1.313,0.938,-0.400,-0.130,-9.560,0.110,-0.020,0.220,-0.510,-0.110,-9.790,267.500,-2.938,179.312
18.79,30,-135.375,-39.563,13.375,1.625,0.438,0.938,-0.440,-0.170,-9.430,0.060,-0.050,0.350,-0.510,-0.110,-9.790,267.500,-2.938,179.312
18.832,30,-135.375,-39.250,12.563,-1.125,1.000,-1.125,-0.340,-0.080,-9.790,0.160,0.020,0.000,-0.500,-0.100,-9.790,267.438,-2.938,179.312
18.855,30,-135.375,-39.250,12.563,1.500,2.000,1.000,-0.440,-0.070,-9.570,0.040,0.030,0.210,-0.490,-0.110,-9.790,267.438,-2.875,179.312
18.88,30,-135.375,-39.250,12.563,-0.125,1.938,0.875,-0.390,-0.050,-9.360,0.090,0.050,0.430,-0.490,-0.110,-9.790,267.500,-2.875,179.312
18.901,30,-135.375,-39.250,12.563,-1.375,3.625,0.875,-0.320,-0.070,-9.690,0.150,0.030,0.090,-0.470,-0.100,-9.790,267.500,-2.750,179.312
18.945,30,-135.000,-38.500,13.375,1.000,2.750,0.750,-0.370,-0.190,-9.490,0.070,-0.070,0.290,-0.450,-0.110,-9.790,267.562,-2.625,179.312
18.97,30,-135.000,-38.500,13.375,-1.875,1.313,-0.563,-0.270,-0.090,-9.610,0.170,0.010,0.180,-0.440,-0.110,-9.790,267.562,-2.563,179.312
18.993,30,-135.000,-38.875,12.250,0.125,0.500,0.563,-0.250,-0.140,-9.710,0.080,0.000,0.140,-0.440,-0.110,-9.790,267.562,-2.563,179.312
19.017,30,-135.000,-38.875,12.250,2.250,0.063,1.000,-0.360,-0.110,-9.510,0.070,0.000,0.280,-0.440,-0.110,-9.790,267.562,-2.563,179.312
19.06,30,-135.000,-40.000,10.688,-1.625,1.875,-0.063,-0.300,-0.110,-9.720,0.120,0.000,0.060,-0.430,-0.110,-9.790,267.625,-2.500,179.312
19.084,30,-135.375,-39.563,11.375,1.313,0.125,1.063,-0.310,-0.090,-9.520,0.110,0.020,0.270,-0.420,-0.110,-9.790,267.625,-2.500,179.312
19.105,30,-135.375,-39.563,11.375,0.938,0.250,0.688,-0.360,-0.110,-9.440,0.060,0.000,0.340,-0.420,-0.110,-9.790,267.625,-2.500,179.250
19.13,30,-135.375,-39.563,11.375,-1.625,0.938,-0.125,-0.310,-0.090,-9.500,0.100,0.020,0.280,-0.420,-0.110,-9.790,267.625,-2.438,179.312
19.171,30,-135.687,-39.250,12.250,1.500,-1.250,0.750,-0.370,-0.160,-9.490,0.050,-0.040,0.290,-0.420,-0.110,-9.790,267.687,-2.500,179.250
19.205,30,-135.687,-39.250,11.875,-1.750,-0.625,-0.688,-0.230,-0.020,-9.760,0.190,0.080,0.020,-0.430,-0.110,-9.790,267.625,-2.500,179.312
19.229,30,-135.687,-39.250,11.875,0.438,0.500,0.938,-0.140,-0.100,-9.740,0.280,0.000,0.040,-0.430,-0.100,-9.790,267.687,-2.500,179.312
19.274,30,-135.000,-39.563,12.250,0.500,-1.188,0.250,-0.440,-0.270,-9.370,-0.010,-0.150,0.420,-0.420,-0.120,-9.790,267.687,-2.500,179.250
19.295,30,-135.687,-39.250,11.375,-3.875,-2.000,-2.750,-0.250,-0.090,-9.620,0.270,0.010,-0.040,-0.430,-0.100,-9.790,267.625,-2.500,179.312
19.32,30,-135.687,-39.250,11.375,1.625,-2.188,-0.438,-0.200,-0.050,-9.600,0.230,0.050,0.190,-0.440,-0.100,-9.790,267.625,-2.563,179.312
19.342,30,-135.375,-38.875,12.563,1.875,-2.250,0.875,-0.360,-0.050,-9.370,0.080,0.050,0.420,-0.440,-0.110,-9.790,267.625,-2.625,179.312
19.386,30,-134.562,-39.250,12.250,-3.313,-3.125,-1.875,-0.210,-0.120,-9.830,0.250,-0.020,-0.030,-0.460,-0.100,-9.790,267.562,-2.750,179.375
19.407,30,-134.562,-39.250,12.250,-0.188,-2.750,-0.625,-0.300,-0.130,-9.730,0.170,-0.030,0.050,-0.480,-0.100,-9.790,267.562,-2.813,179.375
19.434,30,-135.687,-40.000,12.250,1.000,-1.625,-0.563,-0.450,-0.140,-9.390,0.030,-0.040,0.390,-0.480,-0.100,-9.790,267.562,-2.813,179.312
19.455,30,-135.687,-40.000,12.250,-2.438,-1.313,-2.375,-0.290,0.000,-9.550,0.170,0.110,0.080,-0.490,-0.090,-9.790,267.500,-2.875,179.375
19.498,30,-134.687,-39.250,11.875,1.250,-0.750,0.500,-0.450,-0.170,-9.590,0.040,-0.070,0.190,-0.490,-0.090,-9.790,267.500,-2.875,179.375
19.523,30,-134.687,-39.250,11.875,-0.500,-1.375,-1.000,-0.330,-0.090,-9.480,0.160,0.000,0.300,-0.490,-0.090,-9.790,267.500,-2.875,179.375
19.544,30,-134.687,-39.250,12.250,-0.938,-0.375,-1.563,-0.340,-0.090,-9.610,0.150,0.000,0.170,-0.490,-0.090,-9.790,267.438,-2.875,179.437
19.566,30,-134.687,-39.250,12.250,-0.563,-2.375,-0.563,-0.360,-0.060,-9.480,0.070,-0.010,0.240,-0.500,-0.090,-9.790,267.438,-2.938,179.437
19.609,30,-135.375,-39.250,12.375,-0.438,-0.563,-0.625,-0.310,-0.080,-9.590,0.180,0.010,0.200,-0.500,-0.090,-9.790,267.438,-2.938,179.437
19.643,30,-135.000,-39.250,12.563,0.500,1.063,0.688,-0.440,-0.200,-9.410,0.050,-0.100,0.370,-0.500,-0.090,-9.790,267.438,-2.875,179.375
19.667,30,-135.000,-39.250,12.563,-1.938,-0.938,-1.063,-0.390,-0.120,-9.640,0.200,-0.020,0.080,-0.500,-0.080,-9.790,267.438,-2.938,179.437
19.711,30,-135.000,-40.000,13.062,2.813,0.125,0.875,-0.380,-0.080,-9.370,0.120,0.000,0.410,-0.500,-0.090,-9.790,267.438,-2.875,179.437
19.737,30,-135.000,-40.000,12.563,0.250,-0.813,0.313,-0.420,-0.080,-9.390,0.100,0.000,0.290,-0.500,-0.090,-9.790,267.438,-2.938,179.437
19.761,30,-135.000,-40.000,12.563,-1.875,-0.688,-0.875,-0.340,-0.150,-9.770,0.150,-0.060,0.010,-0.500,-0.080,-9.790,267.438,-2.938,179.437
19.787,30,-135.000,-40.000,12.250,1.250,-0.625,0.125,-0.330,-0.070,-9.670,0.130,0.010,0.260,-0.500,-0.090,-9.790,267.438,-2.938,179.437
19.831,30,-135.000,-40.000,12.250,-1.000,-1.375,0.063,-0.410,-0.080,-9.480,0.140,0.000,0.230,-0.510,-0.090,-9.790,267.438,-3.000,179.437
19.852,30,-135.000,-39.250,11.875,-0.750,0.063,0.375,-0.360,-0.150,-9.790,0.140,-0.060,0.000,-0.510,-0.090,-9.790,267.438,-3.000,179.437
19.877,30,-135.000,-39.250,11.875,1.813,1.063,0.750,-0.430,-0.210,-9.530,0.070,-0.110,0.250,-0.510,-0.090,-9.790,267.438,-2.938,179.375
19.898,30,-134.250,-40.000,12.563,1.063,0.063,-0.438,-0.440,-0.160,-9.440,0.060,-0.060,0.340,-0.510,-0.100,-9.790,267.438,-2.938,179.375
19.941,30,-134.562,-39.250,13.062,-1.688,-2.063,-0.563,-0.340,-0.110,-9.760,0.120,-0.040,0.150,-0.520,-0.090,-9.790,267.438,-3.000,179.437
19.962,30,-134.562,-39.250,13.062,1.250,-0.375,1.188,-0.440,-0.110,-9.610,0.070,-0.010,0.170,-0.520,-0.090,-9.790,267.438,-3.000,179.375
19.988,30,-135.000,-39.250,12.688,-0.313,-0.688,0.438,-0.420,-0.040,-9.470,0.110,0.010,0.080,-0.520,-0.090,-9.790,267.438,-3.000,179.437
20.012,30,-135.000,-39.250,12.688,-0.688,0.500,0.438,-0.300,-0.050,-9.670,0.210,0.030,0.120,-0.510,-0.090,-9.790,267.438,-3.000,179.437
20.057,30,-135.375,-39.250,13.188,1.563,3.125,1.563,-0.460,-0.120,-9.340,0.030,-0.020,0.440,-0.490,-0.090,-9.790,267.500,-2.875,179.375
20.081,30,-135.375,-39.250,13.188,-0.750,2.938,0.250,-0.450,-0.030,-9.390,0.030,0.050,0.390,-0.480,-0.090,-9.790,267.500,-2.813,179.437
20.111,30,-134.562,-39.563,13.875,1.063,1.438,1.063,-0.370,0.000,-9.400,0.090,0.080,0.380,-0.470,-0.090,-9.790,267.562,-2.750,179.375
20.157,30,-134.250,-39.563,11.500,-0.188,0.000,1.250,-0.210,-0.200,-9.760,0.250,-0.100,0.020,-0.460,-0.090,-9.790,267.625,-2.688,179.375
20.181,30,-134.250,-39.563,11.500,1.063,1.063,1.563,-0.250,-0.200,-9.790,0.200,-0.100,0.000,-0.450,-0.100,-9.790,267.687,-2.625,179.375
20.202,30,-134.562,-39.250,13.062,2.250,-0.188,1.750,-0.310,-0.150,-9.500,0.140,-0.040,0.280,-0.450,-0.110,-9.790,267.687,-2.625,179.312
20.227,30,-134.562,-39.250,13.062,-1.563,1.250,-0.875,-0.220,-0.110,-9.710,0.220,-0.010,0.080,-0.440,-0.100,-9.790,267.687,-2.625,179.312
20.268,30,-135.000,-38.875,13.062,0.563,4.250,1.313,-0.280,-0.030,-9.780,0.140,0.060,0.000,-0.420,-0.100,-9.790,267.687,-2.438,179.375
20.291,30,-134.687,-39.250,12.563,2.938,3.813,2.000,-0.330,-0.060,-9.460,0.070,0.040,0.330,-0.400,-0.110,-9.790,267.750,-2.375,179.312
20.312,30,-134.687,-39.250,12.563,1.563,3.625,1.813,-0.330,-0.030,-9.400,0.050,0.080,0.390,-0.390,-0.110,-9.790,267.750,-2.313,179.312
20.338,30,-134.687,-39.250,13.375,-1.438,3.313,0.438,-0.210,-0.140,-9.690,0.160,-0.030,0.100,-0.380,-0.110,-9.790,267.812,-2.250,179.312
20.379,30,-134.687,-39.250,13.375,0.875,2.063,1.938,-0.410,-0.220,-9.520,-0.040,-0.100,0.270,-0.370,-0.110,-9.790,267.875,-2.125,179.250
20.4,30,-134.562,-38.875,12.250,-1.313,0.188,0.188,-0.300,-0.160,-9.500,0.060,-0.050,0.280,-0.360,-0.110,-9.790,267.875,-2.125,179.312
20.423,30,-134.562,-38.875,12.250,-0.813,-0.313,-0.063,-0.280,-0.060,-9.580,0.080,0.040,0.210,-0.360,-0.110,-9.790,267.875,-2.125,179.312
20.446,30,-135.000,-38.500,12.563,-0.688,0.125,0.500,-0.230,-0.070,-9.650,0.120,0.030,0.140,-0.360,-0.110,-9.790,267.875,-2.125,179.312
20.49,30,-135.000,-39.250,13.000,1.625,0.125,1.688,-0.370,-0.110,-9.240,0.000,0.000,0.550,-0.360,-0.110,-9.790,267.937,-2.063,179.250
20.511,30,-135.000,-39.250,13.000,-0.813,0.313,0.063,-0.300,-0.180,-9.550,0.090,-0.010,0.400,-0.360,-0.110,-9.790,267.937,-2.125,179.250
20.535,30,-135.000,-39.250,13.000,0.438,-3.000,-0.125,-0.230,-0.080,-9.490,0.140,0.030,0.290,-0.370,-0.110,-9.790,267.937,-2.125,179.250
20.588,30,-135.375,-39.250,13.750,-0.063,-4.063,-0.813,-0.320,-0.160,-9.600,0.080,-0.050,0.190,-0.400,-0.110,-9.790,267.937,-2.375,179.312
20.609,30,-135.375,-39.250,13.750,-0.063,-3.875,-1.500,-0.300,-0.090,-9.590,0.110,0.020,0.200,-0.410,-0.110,-9.790,267.875,-2.438,179.312
20.633,30,-135.375,-39.250,13.750,-0.188,-3.813,-1.500,-0.300,-0.060,-9.560,0.130,0.050,0.230,-0.430,-0.110,-9.790,267.875,-2.500,179.312
20.654,30,-136.500,-39.250,13.062,-1.000,-4.125,-1.500,-0.280,-0.110,-9.730,0.160,0.000,0.050,-0.440,-0.110,-9.790,267.812,-2.625,179.312
20.699,30,-133.875,-39.250,12.563,0.750,-2.313,-1.438,-0.330,-0.040,-9.510,0.130,0.070,0.270,-0.460,-0.110,-9.790,267.750,-2.688,179.312
20.722,30,-133.875,-39.250,12.563,-0.875,-1.500,-0.813,-0.390,-0.070,-9.690,0.100,0.020,0.070,-0.470,-0.110,-9.790,267.750,-2.750,179.312
20.746,30,-135.000,-40.000,11.375,0.563,-0.063,-0.438,-0.330,-0.080,-9.720,0.130,0.030,0.060,-0.470,-0.110,-9.790,267.750,-2.750,179.312
20.772,30,-135.000,-40.000,11.375,2.938,-1.188,0.313,-0.390,-0.120,-9.350,0.060,0.010,0.500,-0.470,-0.120,-9.790,267.750,-2.750,179.250
20.816,30,-135.000,-39.563,13.062,-1.438,-1.063,-1.375,-0.290,-0.040,-9.620,0.180,0.070,0.160,-0.470,-0.110,-9.790,267.687,-2.750,179.250
20.84,30,-135.375,-39.563,11.063,-0.188,0.063,-0.188,-0.320,-0.110,-9.680,0.150,0.000,0.100,-0.470,-0.110,-9.790,267.687,-2.750,179.250
20.863,30,-135.375,-39.563,11.063,1.563,-0.375,0.875,-0.330,-0.160,-9.710,0.130,-0.050,0.060,-0.470,-0.120,-9.790,267.687,-2.750,179.250
20.887,30,-135.375,-39.563,11.063,1.938,0.063,0.563,-0.370,-0.170,-9.310,0.100,-0.040,0.480,-0.470,-0.130,-9.790,267.687,-2.750,179.187
20.928,30,-134.250,-38.875,11.875,-0.625,-1.125,-0.938,-0.270,-0.070,-9.620,0.190,0.060,0.160,-0.470,-0.130,-9.790,267.687,-2.750,179.187
20.951,30,-135.375,-38.875,13.500,0.188,0.625,-0.500,-0.320,-0.270,-9.770,0.140,-0.140,0.020,-0.470,-0.130,-9.790,267.687,-2.750,179.125
20.975,30,-135.375,-38.875,13.500,4.688,-5.313,1.063,-0.520,-0.210,-9.470,-0.020,-0.050,0.320,-0.490,-0.150,-9.790,267.687,-2.875,179.063
21.026,30,-133.875,-38.875,13.188,-1.750,-3.813,-3.063,-0.340,-0.130,-9.830,0.190,0.000,-0.040,-0.540,-0.140,-9.790,267.562,-3.125,179.125
21.05,30,-134.250,-38.875,13.188,0.688,-0.063,-1.500,-0.460,-0.030,-9.650,0.070,0.100,0.130,-0.540,-0.140,-9.790,267.500,-3.125,179.125
21.074,30,-134.250,-38.875,13.188,1.063,-0.125,-0.813,-0.420,0.060,-9.420,0.110,0.200,0.280,-0.540,-0.150,-9.790,267.500,-3.125,179.063
21.098,30,-134.250,-40.000,13.500,1.625,-0.750,0.563,-0.400,-0.080,-9.450,0.140,0.070,0.330,-0.540,-0.150,-9.790,267.500,-3.125,179.063
21.144,30,-135.375,-39.250,13.188,-0.313,-2.063,-0.813,-0.420,-0.220,-9.600,0.120,-0.060,0.180,-0.540,-0.150,-9.780,267.500,-3.188,179.063
21.165,30,-135.375,-39.250,13.188,-1.563,-1.813,-1.313,-0.360,-0.210,-9.620,0.200,-0.060,0.110,-0.550,-0.150,-9.780,267.438,-3.188,179.063
21.189,30,-135.375,-39.250,13.188,-1.000,0.313,-0.688,-0.380,-0.200,-9.860,0.160,-0.050,-0.070,-0.550,-0.140,-9.780,267.438,-3.188,179.125
21.214,30,-133.875,-39.250,12.563,0.563,1.813,0.250,-0.400,-0.100,-9.720,0.140,0.040,0.060,-0.540,-0.150,-9.790,267.438,-3.125,179.063
21.257,30,-134.687,-38.875,11.875,0.750,2.813,0.625,-0.370,-0.060,-9.560,0.140,0.080,0.220,-0.520,-0.150,-9.790,267.500,-3.000,179.063
21.282,30,-134.687,-38.875,11.875,-0.625,2.375,1.250,-0.390,-0.210,-9.520,0.120,-0.050,0.260,-0.510,-0.150,-9.790,267.500,-3.000,179.063
21.303,30,-134.250,-39.563,12.250,0.125,2.000,1.313,-0.400,-0.220,-9.670,0.100,-0.070,0.110,-0.500,-0.150,-9.790,267.562,-2.938,179.063
21.345,30,-134.687,-38.875,12.375,-0.125,0.188,0.063,-0.370,-0.200,-9.600,0.120,-0.050,0.180,-0.500,-0.150,-9.790,267.562,-2.875,179.063
21.368,30,-134.687,-38.875,12.375,1.125,-0.625,0.000,-0.420,-0.260,-9.420,0.080,-0.100,0.360,-0.500,-0.150,-9.790,267.562,-2.875,179.063
21.393,30,-134.687,-39.250,11.500,-0.188,-4.625,-1.375,-0.440,-0.230,-9.300,0.060,-0.070,0.480,-0.510,-0.150,-9.790,267.500,-2.938,179.063
21.414,30,-134.687,-39.250,11.500,-2.750,-4.500,-2.750,-0.420,-0.140,-9.550,0.090,0.000,0.230,-0.520,-0.150,-9.790,267.438,-3.125,179.125
21.457,30,-134.687,-39.250,12.375,1.625,-4.813,-1.250,-0.450,-0.260,-9.380,0.040,-0.100,0.250,-0.570,-0.150,-9.780,267.375,-3.313,179.063
21.488,30,-134.687,-39.250,12.375,-2.563,-6.125,-4.500,-0.510,-0.120,-9.570,0.070,0.020,0.210,-0.590,-0.140,-9.780,267.250,-3.500,179.125
21.509,30,-134.250,-38.875,11.500,-1.313,-6.750,-4.188,-0.410,0.110,-9.640,0.210,0.260,0.130,-0.620,-0.140,-9.780,267.188,-3.625,179.125
21.535,30,-134.250,-38.875,11.500,3.063,-4.875,0.000,-0.540,-0.150,-9.540,0.090,0.000,0.230,-0.630,-0.150,-9.780,267.125,-3.688,179.063
21.576,30,-135.375,-38.875,12.000,-0.813,-4.313,-2.938,-0.610,-0.240,-9.730,0.100,-0.060,0.000,-0.680,-0.160,-9.780,267.062,-3.938,179.000
21.6,30,-134.250,-38.875,13.062,-1.063,-5.688,-3.875,-0.550,-0.240,-9.760,0.240,0.140,0.030,-0.690,-0.160,-9.780,267.000,-4.063,179.000
21.623,30,-134.250,-38.875,13.062,3.625,-0.813,-0.438,-0.560,-0.060,-9.740,0.130,0.100,0.030,-0.700,-0.170,-9.770,267.000,-4.125,178.875
21.647,30,-134.250,-39.563,13.062,6.250,-1.563,1.000,-0.570,-0.130,-9.490,0.130,0.050,0.280,-0.700,-0.190,-9.770,267.000,-4.125,178.750
21.688,30,-134.250,-39.563,13.062,2.813,2.313,-0.500,-0.570,-0.300,-9.700,0.120,-0.070,0.070,-0.700,-0.220,-9.770,267.062,-4.063,178.625
21.709,30,-133.875,-38.500,13.375,4.625,-1.250,-0.188,-0.560,-0.190,-9.570,0.140,0.040,0.200,-0.700,-0.240,-9.770,267.062,-4.125,178.500
21.734,30,-133.875,-38.500,13.375,5.875,-1.250,-1.188,-0.520,-0.230,-9.740,0.190,0.030,0.030,-0.710,-0.260,-9.770,267.000,-4.125,178.437
21.776,30,-133.875,-38.875,13.188,12.250,-0.938,3.750,-0.530,0.100,-9.750,0.190,0.430,0.010,-0.720,-0.350,-9.770,267.125,-4.188,177.875
21.8,30,-135.000,-38.500,12.375,15.000,-1.688,3.688,-0.500,-0.400,-9.630,0.260,-0.020,0.300,-0.720,-0.400,-9.770,267.250,-4.250,177.562
21.821,30,-135.000,-38.500,12.375,17.938,0.000,4.188,-0.630,-0.440,-9.410,0.090,0.020,0.340,-0.720,-0.470,-9.760,267.375,-4.250,177.187
21.845,30,-134.250,-38.500,13.188,15.750,3.000,1.438,-0.490,-0.710,-10.150,0.220,-0.190,-0.380,-0.720,-0.520,-9.760,267.438,-4.188,176.937
21.886,30,-134.250,-38.500,13.188,31.313,-6.813,-5.125,-0.730,-0.910,-9.650,0.010,-0.210,0.090,-0.740,-0.700,-9.750,267.375,-4.313,175.875
21.907,30,-133.187,-37.750,11.563,28.750,-10.313,-2.625,-0.540,-0.670,-9.500,0.080,0.250,-0.110,-0.780,-0.870,-9.730,267.438,-4.563,174.875
21.942,30,-133.187,-37.750,11.563,16.438,0.625,4.625,-0.590,-1.060,-9.760,0.190,-0.140,-0.030,-0.780,-0.920,-9.730,267.500,-4.563,174.500
21.963,30,-133.187,-37.375,11.688,19.063,1.750,4.250,-0.800,-1.010,-9.270,-0.020,-0.020,0.440,-0.780,-0.990,-9.720,267.625,-4.563,174.125
22.009,30,-134.687,-35.563,11.375,20.313,-9.813,2.563,-0.420,-0.950,-9.260,0.350,0.190,0.470,-0.820,-1.140,-9.700,267.750,-4.813,173.250
22.033,30,-134.687,-35.563,11.375,14.375,0.750,5.563,-0.730,-1.100,-9.400,0.090,0.080,0.290,-0.820,-1.190,-9.690,267.875,-4.813,172.937
22.056,30,-133.187,-35.063,12.688,8.500,1.813,4.375,-0.780,-1.240,-9.570,0.030,-0.010,0.110,-0.820,-1.220,-9.690,268.000,-4.750,172.750
22.079,30,-133.187,-35.063,12.688,7.313,0.125,3.438,-0.730,-1.200,-9.150,0.070,0.050,0.490,-0.820,-1.250,-9.690,268.062,-4.750,172.562
22.122,30,-132.750,-34.688,12.563,3.375,-7.313,4.313,-0.520,-1.550,-9.400,0.330,-0.270,0.270,-0.850,-1.270,-9.680,268.187,-4.938,172.500
22.147,30,-133.187,-36.500,12.563,4.625,-1.000,5.750,-0.860,-1.310,-9.640,0.000,-0.030,0.030,-0.860,-1.280,-9.680,268.313,-5.063,172.375
22.168,30,-133.187,-36.500,12.563,8.313,0.375,1.875,-0.610,-1.660,-9.710,0.240,-0.350,-0.030,-0.860,-1.320,-9.670,268.375,-5.000,172.187
22.212,30,-133.187,-35.500,11.688,7.188,-0.438,1.125,-0.650,-1.240,-9.330,0.210,0.140,0.330,-0.860,-1.380,-9.660,268.500,-5.063,171.812
22.238,30,-133.187,-35.500,11.688,1.125,-4.938,2.000,-0.660,-1.350,-9.790,0.210,0.040,-0.130,-0.880,-1.390,-9.660,268.500,-5.125,171.750
22.259,30,-133.562,-35.000,11.500,4.875,-0.688,0.813,-0.710,-1.440,-9.920,0.170,-0.040,-0.250,-0.890,-1.420,-9.660,268.562,-5.188,171.625
22.283,30,-133.562,-35.000,11.500,13.750,0.313,2.563,-0.780,-1.390,-9.190,0.100,0.070,0.460,-0.890,-1.460,-9.650,268.625,-5.188,171.312
22.326,30,-132.375,-35.000,12.063,18.875,3.625,2.938,-0.720,-1.660,-9.700,0.140,-0.100,-0.060,-0.870,-1.550,-9.640,268.812,-5.063,170.562
22.351,30,-132.750,-35.000,11.563,24.125,-0.750,4.813,-0.870,-1.590,-8.810,0.000,0.030,0.810,-0.870,-1.630,-9.630,268.937,-5.063,170.187
22.379,30,-132.750,-35.000,11.563,7.063,1.063,-1.688,-0.600,-1.740,-9.350,0.280,-0.070,0.150,-0.860,-1.700,-9.610,268.937,-5.063,169.937
22.404,30,-133.875,-33.875,10.500,5.313,-2.438,-0.438,-0.580,-1.740,-9.640,0.310,0.110,0.040,-0.870,-1.720,-9.610,268.937,-5.125,169.812
22.447,30,-133.875,-33.875,10.500,8.313,-0.438,0.500,-0.690,-1.890,-9.800,0.190,-0.100,-0.200,-0.890,-1.780,-9.600,268.937,-5.188,169.437
22.468,30,-133.187,-33.188,10.750,13.188,-3.688,1.625,-0.710,-1.860,-9.300,0.180,-0.040,0.290,-0.900,-1.820,-9.590,269.000,-5.250,169.062
22.492,30,-133.187,-33.188,10.750,10.938,0.625,0.688,-0.680,-1.950,-9.790,0.210,-0.090,-0.210,-0.900,-1.860,-9.580,269.000,-5.250,168.875
22.513,30,-133.187,-33.563,9.688,14.438,-1.875,0.063,-0.710,-1.930,-9.420,0.310,0.070,0.180,-0.900,-1.920,-9.570,269.000,-5.313,168.562
22.556,30,-133.187,-33.500,10.063,16.188,-2.688,1.813,-0.750,-2.090,-9.460,0.160,-0.050,0.080,-0.910,-2.030,-9.540,269.062,-5.313,167.937
22.577,30,-133.187,-33.500,10.063,16.250,-6.000,3.813,-0.690,-1.850,-9.030,0.240,0.230,0.500,-0.930,-2.090,-9.530,269.187,-5.500,167.437
22.602,30,-132.750,-33.063,11.187,9.688,-8.250,4.313,-0.800,-1.810,-8.900,0.150,0.320,0.620,-0.960,-2.130,-9.520,269.250,-5.688,167.312
22.643,30,-132.750,-33.063,11.187,11.375,-7.625,5.688,-0.990,-2.310,-9.420,0.010,-0.150,0.080,-1.000,-2.160,-9.510,269.438,-5.938,167.000
22.664,30,-132.750,-32.250,9.875,14.313,-0.500,3.625,-0.910,-2.250,-9.400,0.090,-0.010,0.090,-1.010,-2.230,-9.490,269.500,-5.938,166.750
22.689,30,-132.750,-32.250,9.875,17.688,5.000,1.125,-0.890,-2.340,-9.340,0.110,-0.050,0.130,-1.000,-2.290,-9.480,269.562,-5.875,166.375
22.711,30,-133.062,-32.000,8.375,17.750,0.688,3.000,-0.790,-2.260,-8.910,0.200,0.080,0.550,-1.000,-2.370,-9.460,269.687,-5.813,165.875
22.755,30,-133.500,-31.563,8.375,11.063,-0.563,0.938,-0.700,-2.690,-9.640,0.240,-0.280,-0.070,-1.000,-2.450,-9.440,269.812,-5.875,165.437
22.776,30,-133.500,-31.563,8.375,24.188,-0.813,-0.500,-0.920,-2.520,-9.140,0.080,0.000,0.280,-1.000,-2.520,-9.420,269.812,-5.875,165.000
22.802,30,-132.687,-31.063,7.688,21.813,-3.063,-2.750,-0.800,-2.370,-8.680,0.200,0.220,0.720,-1.010,-2.590,-9.400,269.750,-5.875,164.500
22.828,30,-132.687,-31.063,7.688,10.000,-7.500,-0.938,-1.020,-2.420,-8.890,0.010,0.230,0.480,-1.030,-2.660,-9.380,269.687,-6.125,164.000
22.873,30,-132.000,-30.063,8.375,6.125,-7.125,-1.313,-1.100,-2.890,-9.590,-0.020,-0.170,-0.120,-1.100,-2.710,-9.350,269.625,-6.438,163.750
22.897,30,-132.000,-30.063,8.375,15.188,-2.625,-2.688,-1.060,-2.770,-9.350,0.060,0.040,0.120,-1.100,-2.770,-9.340,269.625,-6.438,163.438
22.918,30,-132.687,-30.375,8.063,18.250,-0.188,-3.063,-0.980,-2.650,-9.100,0.110,0.170,0.220,-1.100,-2.830,-9.320,269.562,-6.438,163.063
22.963,30,-132.250,-30.250,9.750,23.063,6.125,1.000,-1.020,-2.870,-9.200,0.040,0.080,0.080,-1.050,-2.980,-9.270,269.625,-6.188,162.125
22.986,30,-132.250,-30.250,9.750,22.687,14.250,2.000,-0.980,-3.080,-9.480,0.030,-0.020,-0.210,-1.010,-3.050,-9.260,269.750,-5.875,161.687
23.01,30,-132.000,-29.563,8.500,24.875,18.438,1.250,-0.790,-3.160,-8.980,0.160,-0.020,0.250,-0.950,-3.130,-9.240,269.937,-5.438,161.000
23.034,30,-132.000,-29.563,8.500,20.000,19.125,0.125,-0.550,-3.220,-8.980,0.320,-0.070,0.650,-0.870,-3.230,-9.210,270.000,-5.125,160.625
23.077,30,-132.250,-29.188,7.750,5.125,0.625,4.313,-0.630,-3.560,-9.590,0.230,-0.280,-0.390,-0.860,-3.280,-9.190,270.187,-5.063,160.313
23.103,30,-132.250,-28.750,7.250,-2.625,8.188,-2.938,-0.460,-3.400,-9.750,0.370,-0.130,-0.550,-0.840,-3.270,-9.200,270.125,-4.875,160.375
23.124,30,-132.250,-28.750,7.250,9.813,13.125,-3.875,-0.430,-3.290,-9.180,0.320,0.030,0.200,-0.770,-3.320,-9.190,270.125,-4.500,160.125
23.148,30,-132.250,-28.750,7.250,17.125,19.000,-4.500,-0.250,-3.330,-8.960,0.450,0.040,0.210,-0.710,-3.380,-9.170,270.125,-4.188,159.750
23.189,30,-132.250,-29.063,7.750,13.250,1.313,-7.125,-0.420,-3.640,-8.860,0.240,-0.140,0.260,-0.670,-3.490,-9.130,270.000,-3.938,159.000
23.212,30,-133.500,-28.375,7.063,19.375,-0.188,-11.500,-0.320,-3.770,-9.470,0.330,-0.220,-0.350,-0.660,-3.550,-9.110,269.750,-3.813,158.438
23.236,30,-133.500,-28.375,7.063,29.750,-0.500,-10.750,-0.430,-3.430,-8.550,0.200,0.240,0.500,-0.640,-3.680,-9.060,269.500,-3.688,157.813
23.26,30,-134.187,-28.000,7.875,23.750,-0.063,-11.125,-0.370,-3.390,-8.850,0.250,0.350,0.180,-0.620,-3.750,-9.030,269.313,-3.625,157.437
23.314,30,-133.062,-27.687,8.250,4.250,-0.625,-1.125,-0.690,-3.780,-9.180,-0.050,-0.010,-0.150,-0.630,-3.790,-9.020,269.125,-3.688,157.188
23.338,30,-133.062,-27.687,8.250,18.375,5.563,-1.438,-0.550,-3.770,-9.210,0.050,0.070,-0.210,-0.610,-3.840,-8.990,269.125,-3.563,156.813
23.362,30,-133.750,-28.000,9.563,19.813,8.688,1.188,-0.530,-3.750,-9.070,0.050,0.150,-0.100,-0.590,-3.900,-8.970,269.187,-3.438,156.437
23.404,30,-134.187,-26.875,9.188,22.188,19.188,2.875,-0.460,-4.220,-9.150,0.050,-0.190,-0.220,-0.510,-4.030,-8.920,269.438,-3.000,155.687
23.425,30,-134.187,-26.875,9.188,29.688,25.625,-0.875,-0.260,-4.270,-9.120,0.180,-0.150,-0.230,-0.400,-4.160,-8.860,269.625,-2.313,154.812
23.449,30,-134.187,-26.875,9.188,39.688,22.813,2.375,-0.100,-4.040,-8.390,0.160,0.320,0.850,-0.340,-4.280,-8.810,269.750,-2.000,154.063
23.47,30,-134.562,-26.500,8.875,18.750,10.125,3.750,-0.370,-4.040,-7.760,-0.050,0.300,1.010,-0.310,-4.350,-8.780,269.937,-1.813,153.625
23.515,30,-134.875,-26.188,8.875,-0.813,7.188,-2.125,-0.290,-4.630,-9.280,0.000,-0.280,-0.500,-0.260,-4.360,-8.770,270.000,-1.563,153.562
23.539,30,-134.875,-26.188,8.875,15.875,10.688,-1.188,0.140,-4.380,-8.700,0.370,0.030,0.040,-0.230,-4.410,-8.750,270.000,-1.313,153.188
23.563,30,-134.187,-25.000,9.563,24.188,11.812,2.125,0.220,-4.300,-8.380,0.420,0.180,0.320,-0.190,-4.490,-8.710,270.125,-1.125,152.688
23.587,30,-134.187,-25.000,9.563,15.188,1.563,4.563,0.150,-4.510,-7.800,0.160,-0.070,0.660,-0.190,-4.550,-8.680,270.250,-1.125,152.312
23.631,30,-135.250,-25.375,9.000,19.188,0.125,-5.250,0.010,-5.050,-8.810,0.210,-0.420,-0.160,-0.190,-4.620,-8.640,270.187,-1.125,151.812
23.657,30,-135.562,-25.750,11.187,24.500,-0.938,-6.750,0.130,-4.650,-8.210,0.310,0.030,0.390,-0.180,-4.690,-8.600,270.000,-1.063,151.187
23.678,30,-135.562,-25.750,11.187,14.938,-6.313,-6.813,0.270,-4.620,-8.520,0.470,0.130,0.040,-0.190,-4.760,-8.570,269.812,-1.125,150.938
23.703,30,-135.562,-25.750,11.187,9.500,-9.125,-3.500,-0.050,-4.670,-8.900,0.150,0.100,-0.340,-0.210,-4.780,-8.550,269.687,-1.188,150.750
23.753,30,-135.250,-25.000,10.875,17.063,4.688,-6.250,0.040,-4.790,-8.820,0.240,0.080,-0.320,-0.200,-4.880,-8.500,269.438,-1.188,150.063
23.775,30,-133.750,-24.688,10.500,15.750,2.438,-4.000,0.080,-4.700,-8.410,0.260,0.220,0.050,-0.180,-4.920,-8.470,269.313,-1.000,149.687
23.799,30,-133.750,-24.688,10.500,9.938,-2.188,-0.375,-0.010,-4.600,-8.380,0.160,0.350,0.070,-0.180,-4.960,-8.450,269.313,-1.063,149.500
23.84,30,-135.250,-24.688,9.500,14.625,5.125,-0.250,-0.210,-5.040,-8.230,-0.050,0.000,0.180,-0.160,-5.040,-8.410,269.313,-0.938,149.063
23.864,30,-135.562,-25.000,10.375,3.500,3.750,-3.063,-0.030,-4.910,-8.180,0.100,0.140,0.210,-0.140,-5.050,-8.400,269.313,-0.813,148.938
23.888,30,-135.562,-25.000,10.375,3.250,4.000,-2.438,0.060,-5.050,-8.500,0.190,0.010,-0.110,-0.120,-5.070,-8.390,269.250,-0.688,148.812
23.911,30,-136.375,-22.500,10.063,8.938,6.125,0.250,0.010,-5.050,-8.200,0.000,0.040,0.190,-0.100,-5.090,-8.370,269.313,-0.563,148.625
23.952,30,-136.375,-22.500,10.063,-2.313,9.063,-4.813,0.020,-5.280,-8.540,0.230,-0.010,-0.030,-0.040,-5.090,-8.370,269.313,-0.250,148.625
23.973,30,-135.562,-24.000,9.750,4.813,11.250,-4.375,0.170,-5.220,-8.240,0.180,-0.110,0.110,-0.010,-5.110,-8.360,269.250,0.000,148.562
23.999,30,-135.562,-24.000,9.750,6.313,12.563,-3.875,0.250,-5.140,-8.240,0.210,-0.010,0.110,0.030,-5.120,-8.350,269.250,0.250,148.375
24.02,30,-136.375,-24.250,11.250,6.000,7.063,-1.250,0.240,-5.120,-7.850,0.140,-0.080,0.110,0.070,-5.150,-8.340,269.250,0.375,148.250
24.065,30,-136.000,-24.250,12.000,5.813,1.875,-2.625,-0.130,-4.980,-8.020,-0.230,0.180,0.290,0.100,-5.170,-8.320,269.187,0.563,148.125
24.087,30,-136.000,-24.250,12.000,5.313,-4.125,-6.875,0.320,-5.360,-7.680,0.220,-0.170,0.630,0.100,-5.180,-8.320,269.000,0.563,148.000
24.111,30,-136.375,-23.500,12.188,6.875,-4.688,-3.063,0.190,-5.090,-8.490,0.100,0.110,-0.180,0.090,-5.220,-8.300,268.937,0.500,147.813
24.132,30,-136.375,-23.500,12.188,12.000,-4.000,-4.875,0.360,-5.230,-8.200,0.270,0.020,0.070,0.080,-5.250,-8.270,268.812,0.500,147.562
24.178,30,-136.000,-23.563,11.250,6.625,-1.313,-3.063,0.400,-5.310,-8.540,0.310,0.000,-0.300,0.080,-5.300,-8.240,268.562,0.438,147.125
24.214,30,-135.562,-23.188,11.750,1.375,-1.813,-3.813,0.140,-5.420,-8.830,0.190,0.170,0.190,0.070,-5.320,-8.230,268.438,0.438,147.125
24.235,30,-135.562,-23.188,11.750,0.250,-6.438,-4.188,0.190,-5.120,-7.900,0.130,0.200,0.320,0.060,-5.320,-8.230,268.313,0.313,147.062
24.261,30,-136.375,-23.563,12.063,1.375,-8.625,-3.063,0.180,-5.200,-7.960,0.140,0.120,0.260,0.040,-5.320,-8.230,268.187,0.125,147.125
24.302,30,-136.375,-23.563,12.063,1.438,-9.688,-6.125,0.160,-5.460,-8.860,0.170,-0.140,-0.620,-0.010,-5.320,-8.230,267.812,-0.063,147.062
24.323,30,-136.000,-24.375,11.688,8.875,-9.750,-6.250,0.100,-5.190,-8.350,0.130,0.160,-0.130,-0.020,-5.350,-8.210,267.687,-0.125,146.875
24.349,30,-136.000,-24.375,11.688,0.500,-11.313,-6.500,0.310,-5.210,-7.740,0.350,0.130,0.460,-0.040,-5.350,-8.210,267.500,-0.188,146.875
24.39,30,-136.375,-23.500,11.750,1.750,-7.250,-4.813,0.250,-5.390,-9.020,0.330,-0.030,-0.800,-0.070,-5.360,-8.200,267.188,-0.438,146.812
24.414,30,-136.687,-23.500,12.688,6.813,-8.500,-4.813,0.050,-5.170,-8.240,0.180,0.070,-0.290,-0.080,-5.380,-8.190,267.000,-0.438,146.625
24.435,30,-136.687,-23.500,12.688,10.562,-3.625,-4.313,0.220,-5.080,-8.300,0.300,0.330,-0.120,-0.080,-5.410,-8.170,266.937,-0.438,146.438
24.461,30,-136.687,-22.750,12.500,19.250,-1.750,0.313,0.160,-5.650,-7.990,0.250,-0.190,0.150,-0.080,-5.460,-8.140,266.937,-0.500,145.875
24.502,30,-136.687,-22.750,12.500,29.063,8.188,4.000,0.050,-5.580,-8.310,0.130,0.020,-0.270,-0.070,-5.610,-8.030,267.188,-0.375,144.750
24.523,30,-135.187,-23.875,12.563,22.563,6.875,1.625,0.390,-5.560,-7.610,0.410,0.130,0.490,-0.040,-5.700,-7.970,267.250,-0.250,144.375
24.548,30,-135.187,-23.875,12.563,9.875,7.000,5.250,0.140,-5.710,-7.920,0.180,0.020,0.020,-0.030,-5.730,-7.950,267.375,-0.188,144.125
24.569,30,-136.250,-22.750,13.563,9.188,0.938,4.375,0.150,-5.730,-7.880,0.190,0.020,0.040,-0.030,-5.760,-7.930,267.500,-0.250,143.875
24.613,30,-136.250,-22.750,11.375,18.688,0.750,3.250,0.240,-6.080,-7.820,0.300,-0.240,0.050,-0.050,-5.860,-7.860,267.687,-0.313,143.250
24.64,30,-136.250,-22.750,11.375,19.625,2.563,4.875,0.150,-5.860,-7.630,0.210,0.050,0.190,-0.060,-5.930,-7.800,267.812,-0.313,142.688
24.664,30,-136.687,-23.063,11.063,16.500,0.188,4.125,-0.170,-5.780,-7.830,-0.100,0.170,-0.040,-0.070,-5.970,-7.770,267.875,-0.375,142.437
24.685,30,-136.687,-23.063,11.063,10.063,-2.313,-0.250,-0.040,-6.340,-7.590,0.020,-0.340,0.160,-0.070,-6.000,-7.750,267.875,-0.438,142.250
24.73,30,-135.500,-21.688,9.875,12.500,-2.438,3.313,0.050,-5.880,-7.540,0.130,0.160,0.160,-0.080,-6.050,-7.710,267.937,-0.500,141.687
24.754,30,-135.500,-21.688,9.875,11.063,-0.188,4.375,-0.070,-6.220,-7.910,0.010,-0.140,-0.220,-0.090,-6.080,-7.680,268.062,-0.563,141.500
24.775,30,-136.250,-22.000,10.750,9.438,1.438,4.938,0.130,-6.150,-7.720,0.140,0.100,-0.240,-0.090,-6.120,-7.650,268.125,-0.563,141.312
24.817,30,-135.875,-22.250,10.000,2.250,-0.750,0.188,-0.230,-5.970,-7.740,0.000,-0.100,-0.120,-0.100,-6.140,-7.640,268.187,-0.563,141.188
24.838,30,-135.875,-22.250,10.000,8.500,-6.313,-4.563,0.270,-6.600,-7.480,0.380,-0.440,0.140,-0.100,-6.150,-7.630,268.062,-0.563,141.062
24.864,30,-134.750,-21.563,10.688,15.188,-3.125,3.125,0.180,-6.170,-7.310,0.300,0.020,0.280,-0.120,-6.190,-7.600,268.062,-0.688,140.688
24.885,30,-134.750,-21.563,10.688,13.188,0.563,4.625,0.030,-5.980,-7.260,0.160,0.250,0.290,-0.130,-6.240,-7.560,268.187,-0.750,140.437
24.93,30,-135.875,-21.188,9.000,7.375,0.938,3.563,0.040,-5.970,-7.700,0.180,0.300,-0.170,-0.130,-6.270,-7.530,268.313,-0.750,140.062
24.954,30,-135.875,-21.188,9.000,8.563,-2.563,1.125,0.040,-6.310,-7.470,0.180,-0.010,0.030,-0.140,-6.290,-7.510,268.313,-0.813,139.937
24.975,30,-135.187,-22.250,10.688,11.563,-3.500,1.938,0.080,-6.660,-7.370,0.210,0.050,-0.050,-0.150,-6.330,-7.480,268.375,-0.875,139.688
24.999,30,-135.187,-22.250,10.688,11.313,1.125,3.188,0.050,-6.540,-7.570,0.210,-0.170,-0.110,-0.160,-6.360,-7.450,268.438,-0.938,139.500
25.041,30,-135.187,-21.188,8.875,19.438,-1.375,3.375,0.140,-6.790,-7.170,0.320,-0.350,0.210,-0.170,-6.440,-7.380,268.625,-1.000,138.625
25.065,30,-135.500,-21.500,8.500,26.750,1.188,5.938,-0.080,-6.560,-7.230,0.100,-0.050,0.090,-0.180,-6.510,-7.330,268.750,-1.063,138.125
25.09,30,-135.500,-21.500,8.500,21.813,5.563,4.000,-0.150,-6.500,-7.290,0.030,0.080,-0.040,-0.180,-6.590,-7.250,268.875,-1.063,137.687
25.115,30,-135.187,-20.688,7.500,12.313,3.375,4.000,-0.080,-6.300,-7.200,0.100,0.320,0.020,-0.180,-6.620,-7.220,269.062,-1.063,137.312
25.156,30,-135.187,-20.688,7.500,8.250,-4.063,-0.438,-0.080,-6.810,-6.790,0.100,-0.130,0.380,-0.190,-6.670,-7.170,269.062,-1.125,136.937
25.177,30,-135.500,-20.375,6.500,3.813,1.313,0.875,-0.080,-6.550,-7.400,0.110,0.130,-0.240,-0.190,-6.690,-7.160,269.062,-1.125,136.937
25.202,30,-135.500,-20.375,6.500,2.563,-1.188,-0.750,0.000,-6.630,-7.100,0.190,0.050,0.060,-0.190,-6.690,-7.160,269.000,-1.125,136.875
25.244,30,-134.750,-20.375,6.875,5.500,-1.063,0.375,-0.070,-6.760,-6.970,0.120,-0.040,0.160,-0.200,-6.710,-7.140,269.000,-1.125,136.625
25.267,30,-135.500,-20.250,7.000,6.625,3.125,-0.875,-0.080,-6.680,-7.530,0.100,0.050,-0.410,-0.180,-6.740,-7.110,269.000,-1.063,136.500
25.288,30,-135.500,-20.250,7.000,4.125,0.250,-1.688,-0.080,-6.610,-7.140,0.100,0.130,-0.030,-0.180,-6.750,-7.100,269.000,-1.063,136.437
25.313,30,-135.187,-20.563,6.875,7.000,1.313,-0.750,0.050,-6.980,-7.100,0.230,-0.210,0.000,-0.170,-6.760,-7.090,269.000,-1.000,136.312
25.354,30,-135.187,-20.563,6.875,17.500,5.750,3.563,0.020,-6.790,-6.970,0.190,0.030,0.060,-0.160,-6.820,-7.030,269.125,-0.938,135.812
25.375,30,-135.187,-20.250,6.000,14.875,4.813,1.313,0.000,-6.750,-7.320,0.150,0.110,-0.320,-0.150,-6.860,-6.990,269.187,-0.875,135.375
25.398,30,-135.187,-20.250,6.000,18.313,5.188,0.500,-0.030,-6.880,-7.170,0.100,0.040,-0.230,-0.140,-6.920,-6.940,269.250,-0.813,135.062
25.422,30,-135.187,-20.563,5.688,19.188,4.625,3.750,0.140,-7.210,-6.880,0.280,-0.230,0.000,-0.130,-6.970,-6.890,87.063,-0.750,134.625
25.466,30,-135.500,-20.250,5.563,28.688,13.125,15.563,-0.020,-6.670,-6.930,0.100,0.410,-0.150,-0.130,-7.080,-6.770,87.750,-0.750,133.687
25.487,30,-135.500,-20.250,5.563,22.687,8.313,7.563,0.090,-6.790,-6.740,0.240,0.320,0.040,-0.130,-7.160,-6.690,88.125,-0.750,133.000
25.511,30,-135.500,-20.250,5.563,17.000,6.438,3.813,0.120,-7.040,-6.900,0.250,0.150,-0.250,-0.130,-7.190,-6.650,88.375,-0.750,132.625
25.545,30,-134.750,-19.875,4.250,13.875,-3.875,-2.250,0.070,-7.210,-6.230,0.200,0.020,0.370,-0.120,-7.240,-6.600,88.375,-0.688,132.375
25.589,30,-134.375,-19.500,3.563,1.938,0.188,3.000,0.010,-7.030,-6.680,0.150,0.210,-0.080,-0.130,-7.240,-6.600,88.313,-0.750,132.313
25.615,30,-133.687,-20.250,1.250,0.313,-1.563,1.750,-0.020,-7.190,-6.640,0.110,0.050,-0.040,-0.140,-7.240,-6.600,88.250,-0.813,132.313
25.636,30,-133.687,-20.250,1.250,2.000,-3.688,0.563,-0.010,-7.360,-6.820,0.120,-0.110,-0.220,-0.150,-7.250,-6.590,88.063,-0.875,132.250
25.659,30,-133.687,-20.250,1.250,2.938,-2.375,2.125,0.040,-7.130,-6.570,0.200,0.110,0.010,-0.150,-7.260,-6.590,87.937,-0.875,132.187
25.7,30,-135.500,-19.750,2.750,5.250,-1.875,-2.000,0.090,-7.590,-6.470,0.240,-0.320,0.090,-0.150,-7.270,-6.560,87.937,-0.875,132.062
25.724,30,-134.500,-19.375,2.563,10.688,2.750,2.500,0.100,-7.450,-6.710,0.260,-0.150,-0.160,-0.150,-7.290,-6.540,88.000,-0.875,131.875
25.748,30,-134.500,-19.375,2.563,21.625,-2.563,2.063,0.130,-7.190,-6.080,0.160,0.080,0.150,-0.160,-7.360,-6.470,87.937,-0.938,131.250
25.792,30,-135.187,-19.750,1.875,48.438,0.688,7.438,0.130,-7.310,-6.450,0.320,0.220,-0.180,-0.190,-7.540,-6.260,87.813,-1.063,129.688
25.818,30,-135.187,-19.375,2.250,51.875,-7.500,6.875,0.390,-7.350,-6.660,0.600,0.280,-0.520,-0.210,-7.640,-6.140,87.625,-1.188,128.750
25.839,30,-135.187,-19.375,2.250,51.438,-14.188,3.500,-0.140,-6.940,-5.760,0.040,0.350,0.050,-0.260,-7.790,-5.940,86.813,-1.500,127.250
25.863,30,-135.187,-19.375,2.250,40.625,-12.125,-2.875,-0.450,-8.380,-5.990,-0.170,-0.510,-0.150,-0.280,-7.870,-5.840,86.438,-1.625,126.563
25.904,30,-134.750,-18.688,-0.250,19.938,0.500,7.563,-0.330,-7.930,-5.870,0.000,0.020,-0.160,-0.330,-7.960,-5.710,85.938,-1.938,125.625
25.927,30,-133.687,-18.375,-1.563,22.438,-2.750,5.563,-0.040,-7.860,-5.700,0.300,0.140,-0.050,-0.350,-8.000,-5.650,85.750,-2.063,125.000
25.951,30,-133.687,-18.375,-1.563,24.688,-4.688,3.000,-0.430,-7.740,-5.490,-0.050,0.320,0.060,-0.370,-8.070,-5.550,85.500,-2.188,124.500
25.982,30,-134.500,-18.250,-2.375,27.625,-1.938,-3.125,-0.480,-8.580,-5.370,-0.100,-0.430,0.060,-0.370,-8.140,-5.440,85.437,-2.125,123.687
26.029,30,-133.687,-18.188,-3.375,7.125,-3.125,-1.313,-0.320,-8.280,-5.450,0.050,-0.080,-0.090,-0.380,-8.210,-5.340,85.313,-2.188,123.000
26.053,30,-133.687,-18.188,-3.375,15.688,-1.813,-0.063,-0.220,-8.330,-5.020,0.150,-0.080,0.270,-0.380,-8.240,-5.290,85.313,-2.188,122.687
26.076,30,-134.062,-18.063,-3.063,13.875,-0.438,0.438,-0.140,-8.420,-5.580,0.240,-0.150,-0.320,-0.380,-8.260,-5.250,85.313,-2.188,122.438
26.1,30,-134.062,-18.063,-3.063,14.750,-4.688,-2.250,-0.400,-8.330,-5.020,-0.010,-0.030,0.190,-0.380,-8.300,-5.190,85.188,-2.188,122.000
26.143,30,-133.687,-17.563,-4.375,3.625,-2.875,1.375,-0.080,-8.280,-5.310,0.300,0.040,-0.140,-0.390,-8.320,-5.160,85.000,-2.250,121.812
26.168,30,-134.375,-18.188,-4.563,5.750,-6.813,-2.000,-0.390,-8.260,-5.060,0.000,0.070,0.080,-0.390,-8.330,-5.140,84.812,-2.313,121.687
26.189,30,-134.375,-18.188,-4.563,12.313,-6.563,-3.313,-0.340,-8.570,-4.920,0.050,-0.210,0.190,-0.400,-8.360,-5.100,84.625,-2.313,121.375
26.232,30,-134.375,-17.875,-5.750,15.938,-9.813,0.688,-0.220,-8.080,-5.250,0.190,0.450,-0.170,-0.430,-8.410,-5.020,84.125,-2.500,120.812
26.256,30,-134.375,-17.875,-5.750,19.125,-18.063,-7.750,-0.040,-8.910,-5.200,0.390,-0.470,-0.230,-0.440,-8.440,-4.960,83.688,-2.563,120.438
26.278,30,-133.250,-17.375,-5.000,19.688,-17.188,-3.625,-0.300,-8.940,-4.420,0.160,-0.460,0.470,-0.460,-8.470,-4.900,83.063,-2.688,119.875
26.302,30,-133.250,-17.375,-5.000,10.813,-4.500,4.125,-0.260,-8.130,-5.150,0.220,0.370,-0.290,-0.490,-8.500,-4.850,82.813,-2.813,119.687
26.346,30,-134.000,-18.063,-4.875,22.625,-5.813,-3.188,-0.480,-9.130,-5.230,0.030,-0.550,-0.520,-0.510,-8.580,-4.700,82.125,-3.000,118.562
26.372,30,-133.562,-17.688,-5.875,13.062,-10.250,2.750,-0.480,-8.550,-5.050,0.050,0.050,-0.390,-0.530,-8.600,-4.660,81.687,-3.188,118.250
26.393,30,-133.562,-17.688,-5.875,17.813,-15.313,-4.500,-0.560,-8.770,-4.400,-0.010,-0.120,0.170,-0.550,-8.650,-4.580,81.375,-3.188,117.875
26.418,30,-133.562,-17.688,-5.875,14.688,-8.750,-4.813,-0.420,-9.420,-4.580,0.120,-0.740,-0.050,-0.550,-8.670,-4.530,81.188,-3.188,117.562
26.463,30,-134.687,-17.563,-5.250,6.750,-0.750,0.250,-0.610,-8.930,-4.210,-0.050,-0.220,0.250,-0.560,-8.710,-4.450,81.125,-3.250,117.062
26.485,30,-133.875,-17.188,-5.188,12.250,4.625,-0.563,-0.470,-9.040,-4.620,0.070,-0.290,-0.210,-0.540,-8.740,-4.400,81.375,-3.188,116.750
26.511,30,-133.875,-17.188,-5.188,19.563,5.250,1.563,-0.380,-8.420,-4.760,0.150,0.340,-0.410,-0.540,-8.770,-4.350,81.625,-3.125,116.375
26.552,30,-133.187,-17.063,-6.063,9.938,-1.500,4.625,-0.480,-8.860,-4.000,0.260,0.790,-0.140,-0.560,-8.810,-4.260,81.375,-3.313,115.750
26.576,30,-134.187,-17.375,-7.875,21.688,-1.250,4.625,-0.150,-8.220,-4.330,0.340,0.330,-0.150,-0.570,-8.840,-4.190,81.313,-3.375,115.375
26.597,30,-134.187,-17.375,-7.875,12.250,-6.438,-1.125,-0.380,-9.640,-4.200,0.190,-0.780,-0.040,-0.580,-8.850,-4.160,81.188,-3.375,115.125
26.622,30,-133.500,-16.563,-7.750,19.125,-4.688,10.750,-0.520,-9.620,-4.820,0.080,-0.730,-0.710,-0.610,-8.880,-4.100,80.938,-3.563,114.750
26.663,30,-133.500,-16.563,-7.750,5.500,-1.438,5.625,-0.860,-9.030,-3.920,-0.180,-0.130,0.120,-0.680,-8.900,-4.040,80.313,-4.000,114.312
26.684,30,-133.500,-16.500,-8.000,20.812,-2.938,4.375,-0.770,-8.200,-3.670,0.320,0.450,0.280,-0.700,-8.940,-3.950,80.250,-4.063,113.875
26.709,30,-133.500,-16.500,-8.000,31.813,3.500,-10.188,-0.500,-8.750,-4.600,0.170,0.230,-0.740,-0.670,-8.980,-3.860,80.625,-3.875,113.250
26.731,30,-133.375,-16.750,-7.500,31.313,-6.500,-17.938,-0.560,-9.520,-3.160,0.060,-0.490,0.600,-0.620,-9.030,-3.760,81.062,-3.500,112.312
26.775,30,-133.750,-17.188,-8.000,16.375,5.625,-12.313,-0.370,-9.260,-4.170,0.150,-0.160,-0.550,-0.510,-9.100,-3.590,81.875,-2.938,111.500
26.796,30,-133.750,-17.188,-8.000,7.313,-4.813,-10.625,-0.340,-8.670,-3.430,0.130,0.440,0.130,-0.480,-9.120,-3.570,81.938,-2.813,111.375
26.822,30,-133.375,-17.063,-9.188,11.187,-6.813,-13.250,-0.360,-8.730,-3.880,0.080,0.400,-0.340,-0.450,-9.130,-3.530,82.000,-2.625,111.125
26.843,30,-133.375,-17.063,-9.188,4.063,-13.062,-12.000,0.030,-9.470,-3.540,0.450,-0.330,-0.020,-0.420,-9.140,-3.500,81.813,-2.438,110.938
26.906,30,-134.187,-17.063,-8.500,17.063,-13.125,-10.125,-0.510,-9.150,-3.010,-0.090,0.070,0.290,-0.410,-9.220,-3.300,81.188,-2.375,109.687
26.941,30,-134.500,-17.250,-9.688,18.563,-8.813,-11.375,-0.640,-8.930,-3.180,-0.250,0.310,0.060,-0.390,-9.240,-3.250,81.188,-2.188,109.125
26.965,30,-134.500,-17.250,-9.688,21.875,-9.063,-14.375,-0.480,-8.490,-3.650,-0.120,0.770,-0.460,-0.360,-9.260,-3.180,81.250,-1.938,108.750
27.006,30,-134.500,-17.250,-9.563,18.250,-3.125,-14.563,0.070,-9.300,-3.380,0.320,0.010,-0.330,-0.240,-9.310,-3.050,81.500,-1.438,108.125
27.03,30,-135.062,-16.875,-9.563,12.688,-8.313,-11.438,-0.110,-9.530,-3.320,0.090,-0.200,-0.310,-0.210,-9.330,-3.000,81.563,-1.250,107.813
27.054,30,-135.062,-16.875,-9.563,10.875,-9.750,-6.125,-0.070,-9.340,-2.720,0.130,0.000,0.240,-0.200,-9.340,-2.950,81.375,-1.125,107.500
27.078,30,-135.062,-16.750,-9.500,11.875,-3.500,-4.063,-0.100,-9.610,-3.080,0.100,-0.350,-0.080,-0.190,-9.360,-2.910,81.375,-1.063,107.250
27.119,30,-135.062,-16.750,-9.500,14.250,1.375,-1.563,0.070,-9.280,-3.040,0.130,-0.120,-0.430,-0.170,-9.380,-2.820,81.500,-1.000,106.750
27.14,30,-136.187,-17.375,-8.750,10.625,-5.250,0.000,-0.090,-9.490,-2.880,0.070,-0.090,-0.080,-0.170,-9.390,-2.790,81.438,-1.000,106.562
27.166,30,-136.187,-17.375,-8.750,12.125,-5.250,2.375,-0.100,-9.530,-2.860,0.070,-0.130,-0.100,-0.180,-9.400,-2.760,81.188,-1.063,106.187
27.187,30,-136.500,-18.063,-8.250,18.438,-4.313,2.000,-0.070,-9.530,-2.600,0.120,-0.100,0.060,-0.190,-9.430,-2.670,81.062,-1.125,105.813
27.232,30,-136.063,-15.750,-8.250,16.313,-5.125,1.938,-0.160,-9.440,-2.480,0.020,0.020,0.060,-0.190,-9.460,-2.540,81.062,-1.125,105.062
27.256,30,-136.063,-15.750,-8.250,15.375,-4.188,2.688,-0.270,-9.500,-2.450,-0.030,0.110,0.010,-0.210,-9.480,-2.470,80.813,-1.250,104.562
27.28,30,-135.687,-18.375,-8.188,16.500,-1.250,0.438,-0.090,-9.560,-2.580,0.080,-0.090,-0.410,-0.210,-9.500,-2.420,80.813,-1.188,104.250
27.32,30,-135.687,-18.375,-8.188,19.938,1.375,0.500,-0.300,-9.450,-2.890,0.040,-0.010,-0.480,-0.200,-9.520,-2.320,80.875,-1.188,103.688
27.341,30,-135.687,-17.875,-9.250,6.750,-5.813,-3.375,-0.440,-8.440,-2.280,-0.240,1.080,0.010,-0.190,-9.530,-2.290,81.000,-0.938,103.312
27.378,30,-135.250,-17.875,-9.875,18.188,1.313,-10.625,-0.020,-9.330,-2.980,0.120,0.200,-0.750,-0.130,-9.550,-2.190,81.125,-0.750,102.937
27.399,30,-135.250,-17.875,-9.875,18.688,-6.625,-5.625,-0.060,-9.770,-2.040,0.060,-0.210,0.090,-0.120,-9.560,-2.140,81.062,-0.750,102.625
27.444,30,-136.000,-18.188,-10.063,16.938,-11.500,3.000,-0.140,-9.400,-2.440,0.000,0.180,-0.400,-0.140,-9.590,-2.040,80.375,-0.875,101.812
27.469,30,-136.000,-18.188,-10.063,22.313,-15.688,-1.313,0.110,-9.710,-1.570,0.270,-0.110,0.400,-0.150,-9.610,-1.930,80.125,-0.875,101.375
27.49,30,-136.250,-17.375,-9.500,26.125,-8.688,-6.438,-0.120,-9.560,-2.300,0.010,0.060,-0.450,-0.130,-9.620,-1.850,80.000,-0.813,100.875
27.516,30,-136.250,-17.375,-9.500,22.062,-12.625,-7.563,-0.310,-9.710,-1.950,-0.190,-0.070,-0.170,-0.120,-9.640,-1.770,79.875,-0.688,100.437
27.557,30,-136.250,-18.063,-10.000,13.375,-12.563,-11.063,0.030,-9.190,-1.860,0.090,0.130,-0.100,-0.050,-9.660,-1.650,79.625,-0.250,99.625
27.581,30,-137.375,-18.000,-10.562,9.188,-15.313,-8.563,-0.020,-9.650,-1.630,-0.030,0.140,0.220,-0.030,-9.670,-1.610,79.437,-0.188,99.438
27.602,30,-137.375,-18.000,-10.562,13.563,-12.125,-6.125,0.140,-10.000,-1.500,0.160,-0.320,0.060,-0.020,-9.670,-1.570,79.250,-0.063,99.250
27.628,30,-137.687,-18.250,-9.500,16.500,-9.750,-1.313,-0.070,-9.430,-1.380,-0.040,0.250,0.130,-0.020,-9.680,-1.520,79.063,-0.125,98.938
27.669,30,-137.687,-18.250,-9.500,27.375,-10.375,-3.000,0.050,-9.770,-1.520,0.060,-0.070,-0.130,-0.010,-9.700,-1.380,78.750,0.000,97.813
27.69,30,-138.063,-17.500,-10.875,26.750,-7.938,-3.500,-0.090,-9.700,-1.330,-0.100,0.020,-0.070,0.000,-9.720,-1.250,78.625,0.000,97.312
27.715,30,-138.063,-17.500,-10.875,22.750,-8.313,-1.500,0.020,-9.800,-1.290,0.010,-0.070,-0.110,0.000,-9.730,-1.170,78.500,0.000,96.875
27.756,30,-138.000,-16.250,-10.875,21.063,-4.813,-0.813,-0.050,-9.920,-1.280,-0.050,-0.160,-0.240,0.000,-9.750,-1.030,78.125,0.000,95.813
27.78,30,-138.187,-18.375,-10.375,25.187,-7.750,-0.313,0.020,-9.850,-1.120,0.020,-0.090,-0.160,0.000,-9.760,-0.910,77.938,0.000,95.313
27.805,30,-138.187,-18.375,-10.375,25.125,-10.813,4.063,0.060,-9.790,-0.960,0.080,-0.020,-0.130,-0.020,-9.770,-0.830,77.688,-0.063,94.875
27.83,30,-137.500,-19.063,-11.688,30.313,-8.875,2.375,0.140,-9.870,-0.760,0.180,-0.090,-0.020,-0.030,-9.780,-0.680,77.313,-0.188,94.000
27.871,30,-137.500,-19.063,-11.688,28.000,-4.063,-5.688,0.090,-10.330,-0.470,0.120,-0.540,0.060,-0.020,-9.790,-0.480,77.250,-0.125,92.813
27.892,30,-137.000,-19.000,-11.063,31.000,5.625,-0.375,-0.040,-9.650,-0.590,-0.020,0.140,-0.200,-0.020,-9.790,-0.380,77.375,-0.125,92.250
27.918,30,-137.000,-19.000,-11.063,25.125,8.313,-1.500,0.060,-9.830,-0.740,0.090,-0.030,-0.440,-0.020,-9.800,-0.290,77.562,-0.125,91.687
27.939,30,-137.750,-19.188,-13.750,15.688,5.313,-2.063,0.030,-9.840,-0.550,0.040,-0.030,-0.320,-0.010,-9.800,-0.210,77.750,-0.063,91.250
27.983,30,-137.250,-19.000,-12.875,10.938,5.125,0.063,-0.090,-9.980,-0.460,0.140,-0.020,-0.190,0.000,-9.800,-0.150,78.000,0.000,90.875
28.004,30,-137.250,-19.000,-12.875,6.125,2.063,5.250,0.110,-9.250,-0.320,0.120,0.540,-0.190,-0.010,-9.800,-0.120,78.000,-0.063,90.688
28.03,30,-136.875,-19.250,-13.500,-2.250,2.000,-6.063,0.320,-10.160,-0.630,0.330,-0.350,-0.490,0.000,-9.800,-0.130,78.063,0.000,90.625
28.051,30,-136.875,-19.250,-13.500,17.938,-12.000,0.938,0.000,-9.410,0.300,0.020,0.080,0.400,0.000,-9.800,-0.060,77.875,0.000,90.375
28.096,30,-137.687,-18.188,-13.750,15.750,-1.750,-8.313,0.170,-9.720,-0.010,0.120,0.080,-0.010,0.050,-9.800,0.000,78.187,0.375,89.875
28.121,30,-137.687,-18.188,-13.750,8.625,0.188,-9.188,-0.040,-10.160,-0.610,-0.120,-0.350,-0.650,0.080,-9.800,0.030,78.313,0.500,89.688
28.142,30,-137.250,-19.875,-12.500,8.063,-4.313,-6.750,-0.040,-9.400,0.030,-0.150,0.400,-0.030,0.110,-9.800,0.070,78.375,0.625,89.563
28.187,30,-137.687,-20.250,-13.875,6.688,-2.625,-1.500,0.190,-9.320,0.320,0.020,0.470,0.240,0.170,-9.800,0.080,78.625,1.000,89.500
28.211,30,-137.687,-20.250,-13.875,3.625,1.625,-5.063,0.210,-9.900,-0.020,-0.120,0.270,-0.010,0.190,-9.800,0.100,78.750,1.125,89.375
28.246,30,-138.000,-19.750,-13.875,9.250,0.500,0.813,0.190,-9.880,0.110,-0.010,-0.080,-0.010,0.200,-9.800,0.120,78.750,1.125,89.063
28.272,30,-138.000,-19.750,-13.875,16.125,2.813,4.563,0.130,-9.820,0.360,-0.060,-0.010,0.180,0.190,-9.800,0.180,78.750,1.000,88.750
28.313,30,-138.687,-19.750,-13.687,14.125,4.125,8.625,0.160,-9.830,0.410,-0.070,0.260,-0.540,0.120,-9.800,0.310,78.563,0.688,88.125
28.337,30,-138.000,-19.688,-13.500,7.625,5.313,8.250,0.110,-9.630,-0.220,0.010,0.160,-0.550,0.090,-9.800,0.330,78.500,0.563,88.000
28.359,30,-138.000,-19.688,-13.500,10.625,-5.188,6.188,0.030,-9.620,0.670,-0.030,0.160,0.310,0.070,-9.790,0.360,78.187,0.375,87.750
28.383,30,-137.187,-20.063,-13.875,13.125,1.750,1.188,0.090,-9.820,0.490,0.020,-0.020,0.090,0.060,-9.790,0.430,78.250,0.375,87.438
28.424,30,-137.187,-20.063,-13.875,10.313,-3.375,0.500,0.160,-10.280,0.620,0.100,-0.480,0.120,0.050,-9.790,0.510,78.125,0.313,87.000
28.445,30,-137.187,-20.063,-14.563,5.563,5.000,0.500,-0.230,-10.150,0.140,-0.290,-0.360,-0.390,0.050,-9.790,0.540,78.187,0.313,86.813
28.471,30,-137.187,-20.063,-14.563,17.375,-0.125,3.125,0.130,-10.040,0.550,0.070,-0.250,-0.040,0.050,-9.780,0.590,78.125,0.250,86.500
28.492,30,-136.375,-20.063,-15.188,16.125,0.375,6.188,0.020,-9.880,0.320,0.000,-0.100,-0.320,0.030,-9.780,0.640,77.938,0.125,86.062
28.534,30,-136.375,-20.750,-14.688,16.875,4.000,2.875,-0.040,-9.780,0.650,-0.040,-0.010,-0.100,0.000,-9.770,0.770,77.875,0.000,85.437
28.555,30,-136.375,-20.750,-14.688,11.000,6.750,-0.438,-0.070,-9.770,0.810,-0.060,0.000,0.000,0.000,-9.770,0.810,78.000,0.000,85.188
28.58,30,-136.875,-20.688,-15.563,12.563,10.813,1.000,0.130,-9.830,0.720,0.140,-0.060,-0.120,-0.010,-9.760,0.850,78.187,0.000,85.000
28.601,30,-136.875,-20.688,-15.563,8.750,7.688,2.500,0.070,-9.610,0.530,0.090,0.150,-0.340,-0.010,-9.760,0.880,78.313,-0.063,84.750
28.644,30,-136.750,-20.375,-15.250,13.188,4.313,-1.563,-0.210,-9.540,0.980,0.000,0.100,-0.040,0.000,-9.760,0.950,78.625,0.000,84.375
28.67,30,-136.750,-20.375,-15.250,18.375,5.000,-3.750,0.000,-9.640,0.830,0.000,0.100,-0.170,0.000,-9.750,1.010,78.750,0.000,84.000
28.695,30,-137.687,-20.000,-15.688,14.313,3.313,-3.750,-0.140,-9.620,0.940,0.000,0.170,-0.160,0.010,-9.740,1.080,78.938,0.063,83.625
28.719,30,-137.687,-20.000,-15.688,13.875,2.250,-6.000,0.180,-9.940,1.080,0.140,-0.190,-0.040,0.030,-9.740,1.130,79.125,0.188,83.313
28.761,30,-136.875,-21.000,-17.688,15.188,3.375,-7.625,0.030,-9.350,0.770,-0.040,0.370,-0.450,0.080,-9.720,1.230,79.625,0.563,82.688
28.786,30,-137.687,-21.375,-17.250,6.625,-3.375,-10.688,0.220,-10.180,1.030,0.100,-0.450,-0.220,0.120,-9.720,1.260,79.750,0.750,82.500
28.807,30,-137.687,-21.375,-17.250,12.688,-4.688,-6.313,0.230,-9.200,1.270,0.070,0.500,-0.030,0.150,-9.710,1.310,79.813,0.875,82.312
28.833,30,-136.500,-22.500,-16.875,5.750,-1.625,-9.563,0.250,-10.420,0.740,0.070,-0.710,-0.590,0.170,-9.710,1.330,79.938,1.000,82.125
28.874,30,-136.500,-22.500,-16.875,11.938,-8.750,-4.250,0.290,-9.820,1.400,0.090,-0.120,0.000,0.200,-9.700,1.400,79.688,1.125,81.687
28.895,30,-136.875,-20.375,-18.063,16.438,-5.563,-4.688,0.470,-9.850,1.400,0.210,-0.200,0.040,0.220,-9.690,1.480,79.688,1.313,81.250
28.919,30,-136.875,-20.375,-18.063,23.625,3.250,-3.750,0.080,-9.870,1.860,-0.150,-0.190,0.300,0.240,-9.670,1.560,79.750,1.375,80.813
28.962,30,-138.000,-22.375,-15.750,17.500,5.000,-6.000,0.190,-10.080,1.340,-0.050,-0.430,-0.370,0.240,-9.650,1.710,80.125,1.438,79.688
28.986,30,-137.687,-23.188,-17.750,21.125,-0.938,-2.250,0.250,-9.550,1.730,0.000,0.080,-0.040,0.250,-9.640,1.780,80.188,1.500,79.250
29.007,30,-137.687,-23.188,-17.750,23.375,0.375,-3.125,0.230,-9.270,1.740,-0.040,0.340,-0.140,0.270,-9.610,1.890,80.250,1.563,78.812
29.033,30,-137.563,-21.250,-18.063,23.000,0.375,-5.500,0.420,-10.110,2.190,0.130,-0.510,0.220,0.280,-9.600,1.970,80.313,1.688,78.375
29.074,30,-137.563,-21.250,-18.063,24.500,0.188,2.938,0.110,-9.390,1.730,-0.140,0.160,-0.410,0.250,-9.560,2.140,80.250,1.500,77.313
29.095,30,-137.875,-22.375,-19.000,24.688,-3.063,-3.375,0.050,-9.260,2.300,-0.210,0.280,0.070,0.270,-9.530,2.260,80.250,1.563,76.563
29.119,30,-137.875,-22.375,-19.000,22.563,0.063,-3.250,0.230,-9.840,1.940,-0.050,-0.320,-0.380,0.280,-9.510,2.330,80.313,1.625,76.188
29.149,30,-137.563,-23.500,-19.500,16.625,-5.813,-2.500,0.290,-9.800,2.240,0.000,-0.300,-0.180,0.300,-9.490,2.420,80.250,1.750,75.625
29.195,30,-137.563,-23.500,-19.375,9.000,-4.000,1.250,0.040,-8.750,2.200,-0.260,0.720,-0.280,0.310,-9.470,2.500,80.063,1.813,75.188
29.219,30,-137.563,-23.500,-19.375,10.375,-7.813,-9.938,0.380,-9.530,2.520,0.030,-0.070,-0.010,0.350,-9.460,2.530,80.125,2.063,74.938
29.243,30,-138.250,-23.375,-20.000,10.000,-8.375,-10.688,0.440,-9.720,2.450,0.040,-0.270,-0.120,0.400,-9.450,2.570,80.250,2.438,74.688
29.267,30,-138.250,-23.375,-20.000,8.250,-4.563,-4.563,0.550,-9.760,2.400,0.100,-0.330,-0.200,0.430,-9.440,2.610,80.250,2.500,74.500
29.31,30,-138.563,-24.750,-19.500,9.438,-3.938,4.625,0.390,-9.120,2.460,-0.020,0.290,-0.200,0.420,-9.420,2.660,80.000,2.438,74.125
29.336,30,-137.187,-24.000,-20.063,8.688,-5.563,-0.500,0.540,-9.710,2.900,0.120,-0.290,0.200,0.420,-9.410,2.690,79.938,2.438,74.000
29.357,30,-137.187,-24.000,-20.063,11.688,0.063,0.688,0.560,-9.530,2.590,-0.200,-0.080,-0.190,0.420,-9.400,2.750,79.875,2.438,73.625
29.381,30,-137.187,-24.000,-20.063,15.313,3.000,4.250,0.420,-9.490,2.480,0.010,-0.100,-0.310,0.400,-9.390,2.790,79.813,2.313,73.375
29.422,30,-138.563,-25.500,-18.750,9.625,-3.125,4.000,0.450,-9.080,2.610,0.070,0.280,-0.250,0.370,-9.360,2.870,79.563,2.188,72.938
29.445,30,-137.187,-25.500,-20.688,14.188,-3.563,-1.813,0.260,-9.280,2.920,-0.110,0.070,0.010,0.380,-9.350,2.900,79.500,2.250,72.500
29.469,30,-137.187,-25.500,-20.688,23.188,-1.500,-0.813,0.460,-9.410,2.780,0.070,-0.090,-0.230,0.380,-9.320,3.010,79.500,2.250,72.063
29.493,30,-138.250,-23.188,-20.375,23.937,0.375,0.750,0.330,-9.320,2.870,-0.050,-0.020,-0.200,0.380,-9.300,3.080,79.437,2.250,71.625
29.535,30,-138.250,-23.188,-20.375,17.688,-0.438,-3.000,0.370,-9.170,2.940,-0.010,0.080,-0.240,0.390,-9.260,3.190,79.375,2.250,70.938
29.556,30,-138.250,-26.750,-20.563,17.188,0.125,-6.438,0.290,-9.000,3.060,-0.110,0.230,-0.180,0.400,-9.240,3.240,79.563,2.438,70.438
29.58,30,-138.250,-26.750,-20.563,15.375,-0.063,-14.000,0.510,-9.580,3.140,0.060,-0.350,-0.150,0.450,-9.210,3.320,79.750,2.625,70.125
29.61,30,-137.563,-26.250,-20.688,12.250,-1.188,-3.438,0.480,-9.150,3.220,0.000,0.030,-0.160,0.480,-9.190,3.380,79.813,2.813,69.750
29.654,30,-139.000,-27.062,-21.500,16.813,-3.125,-4.813,0.490,-9.370,3.300,-0.010,-0.210,-0.150,0.510,-9.160,3.460,79.938,2.938,69.250
29.679,30,-139.000,-27.062,-21.500,19.188,-3.313,-4.188,0.520,-9.070,3.410,0.000,0.060,-0.090,0.530,-9.130,3.510,80.000,3.125,68.750
29.7,30,-138.563,-27.250,-21.063,17.438,-2.813,-2.813,0.640,-9.330,3.410,0.010,-0.070,-0.130,0.550,-9.100,3.590,80.000,3.188,68.438
29.742,30,-138.250,-28.063,-21.750,14.625,-2.438,-1.500,0.340,-8.720,3.360,-0.150,0.000,-0.230,0.570,-9.070,3.670,80.000,3.313,67.875
29.763,30,-138.250,-28.063,-21.750,14.000,-5.313,-0.438,0.610,-8.770,3.350,0.040,0.280,-0.360,0.570,-9.050,3.710,79.938,3.375,67.625
29.789,30,-139.000,-27.687,-21.750,15.438,-9.750,-5.250,0.650,-9.180,3.600,0.040,-0.150,-0.150,0.600,-9.030,3.760,79.875,3.500,67.375
29.81,30,-139.000,-27.687,-21.750,15.438,-8.750,-4.813,0.650,-9.210,3.880,0.010,-0.080,0.080,0.630,-9.000,3.830,79.813,3.688,66.937
29.853,30,-137.875,-28.375,-21.250,9.188,-5.188,-5.313,0.690,-9.280,3.520,0.010,-0.300,-0.350,0.670,-8.970,3.880,79.750,3.875,66.563
29.877,30,-137.875,-28.375,-21.250,14.125,-6.188,-1.563,0.570,-8.760,3.760,-0.110,0.190,-0.160,0.680,-8.960,3.920,79.750,3.938,66.312
29.899,30,-138.875,-28.375,-21.563,19.875,-4.938,-3.875,0.550,-8.800,3.910,-0.150,0.130,-0.050,0.710,-8.920,4.000,79.688,4.125,65.750
29.923,30,-138.875,-28.375,-21.563,21.125,-10.875,-3.000,0.950,-9.200,4.290,0.220,-0.310,0.210,0.730,-8.890,4.070,79.625,4.250,65.375
29.966,30,-139.250,-28.563,-23.063,5.938,2.938,1.188,0.640,-8.790,3.700,-0.070,0.050,-0.450,0.710,-8.840,4.160,79.500,4.125,64.750
29.991,30,-139.563,-29.688,-22.188,7.188,-1.938,0.250,0.400,-8.660,4.000,-0.300,0.180,-0.170,0.710,-8.840,4.170,79.437,4.188,64.500
30.012,30,-139.563,-29.688,-22.188,28.875,-17.188,-7.375,0.760,-8.970,4.900,0.000,-0.190,0.600,0.770,-8.780,4.290,79.375,4.500,63.938
30.037,30,-139.563,-29.688,-22.188,35.563,-5.938,-8.250,0.810,-8.690,4.500,0.000,0.030,0.100,0.800,-8.720,4.400,79.375,4.688,63.187
30.089,30,-140.750,-29.875,-22.750,7.563,6.250,0.688,0.550,-8.330,4.490,-0.270,0.330,0.000,0.820,-8.670,4.500,79.437,4.813,62.562
30.11,30,-140.750,-29.875,-22.750,4.188,2.563,-6.875,0.800,-8.990,4.130,-0.020,-0.320,-0.380,0.840,-8.660,4.520,79.625,4.875,62.375
30.134,30,-140.750,-29.875,-22.750,11.187,-4.625,-3.875,0.750,-8.810,3.720,0.130,0.080,0.150,0.860,-8.630,4.560,79.625,5.000,62.125
30.155,30,-139.187,-28.750,-22.687,12.375,-2.750,-1.500,1.270,-8.910,5.060,0.390,-0.290,0.460,0.870,-8.610,4.600,79.563,5.125,61.813
30.2,30,-140.250,-31.188,-23.688,10.063,0.563,-1.375,0.560,-8.550,4.650,-0.300,0.020,-0.010,0.860,-8.570,4.680,79.625,5.063,61.312
30.224,30,-140.250,-31.188,-23.688,10.438,-2.375,-0.875,0.850,-8.910,4.480,-0.010,-0.350,-0.230,0.870,-8.550,4.710,79.625,5.063,61.063
30.248,30,-139.500,-30.375,-23.188,16.813,-2.688,-2.500,1.010,-8.800,4.580,0.130,-0.270,-0.180,0.880,-8.520,4.760,79.625,5.125,60.750
30.272,30,-139.500,-30.375,-23.188,12.500,-1.688,-4.938,1.070,-8.830,4.690,0.040,-0.040,-0.050,0.900,-8.490,4.820,79.750,5.250,60.375
30.315,30,-139.187,-29.688,-23.500,18.813,3.375,-13.438,0.880,-8.370,4.700,-0.070,0.050,-0.220,0.950,-8.420,4.920,80.250,5.563,59.625
30.341,30,-139.875,-29.688,-24.500,20.000,-2.063,-9.938,1.030,-8.330,4.770,0.050,0.050,-0.200,0.980,-8.380,4.980,80.375,5.750,59.250
30.362,30,-139.875,-29.688,-24.500,33.500,2.813,-11.313,1.120,-8.440,5.050,0.030,0.040,-0.040,1.020,-8.300,5.110,80.688,5.938,58.313
30.406,30,-140.688,-32.500,-23.875,10.188,-2.250,-1.438,1.030,-8.210,5.180,0.000,0.010,-0.050,1.020,-8.220,5.230,80.813,6.000,57.500
30.432,30,-140.688,-32.500,-23.875,11.500,-0.063,2.188,1.210,-8.260,5.500,0.190,-0.050,0.230,1.020,-8.200,5.260,80.750,6.000,57.250
30.453,30,-140.688,-32.875,-23.750,12.000,3.500,0.313,0.940,-8.260,5.470,0.040,-0.200,-0.150,1.010,-8.170,5.320,80.813,5.938,56.937
30.477,30,-140.688,-32.875,-23.750,24.750,2.188,-8.063,1.050,-8.440,5.500,0.020,-0.310,0.110,1.030,-8.130,5.380,80.938,6.000,56.438
30.533,30,-139.187,-33.188,-24.375,6.563,-3.500,-4.688,1.100,-8.260,5.130,0.020,-0.200,-0.340,1.070,-8.060,5.480,81.188,6.250,55.750
30.554,30,-139.875,-31.250,-25.000,21.125,-1.750,-2.188,0.960,-7.970,5.140,-0.010,-0.280,0.200,1.090,-8.000,5.550,81.188,6.375,55.188
30.579,30,-139.875,-31.250,-25.000,20.125,-1.375,-0.688,1.150,-7.970,5.660,0.040,-0.010,0.050,1.100,-7.960,5.610,81.188,6.438,54.750
30.601,30,-140.188,-33.750,-22.375,8.313,0.063,1.625,0.980,-7.970,5.550,-0.120,-0.030,-0.090,1.100,-7.940,5.640,81.125,6.438,54.500
30.645,30,-140.188,-34.500,-24.250,5.125,-5.813,0.313,1.150,-8.080,5.790,0.030,-0.160,0.130,1.110,-7.920,5.670,81.000,6.500,54.375
30.666,30,-140.188,-34.500,-24.250,2.438,-2.875,2.313,1.040,-7.940,5.090,-0.060,-0.020,-0.580,1.110,-7.910,5.670,80.938,6.500,54.313
30.692,30,-139.063,-34.500,-23.375,4.313,-5.500,6.313,0.960,-7.730,5.460,-0.140,0.170,-0.210,1.100,-7.910,5.680,80.750,6.438,54.250
30.713,30,-139.063,-34.500,-23.375,6.250,-4.250,2.000,1.010,-7.960,5.450,-0.090,-0.060,-0.240,1.100,-7.900,5.700,80.563,6.438,54.125
30.756,30,-140.562,-34.750,-22.875,10.625,-1.438,1.188,0.970,-8.110,5.170,-0.130,-0.250,-0.590,1.100,-7.850,5.760,80.437,6.438,53.688
30.78,30,-140.562,-34.750,-22.875,24.063,-5.813,3.313,1.180,-7.690,5.610,0.070,0.120,-0.200,1.100,-7.810,5.810,80.250,6.438,53.313
30.802,30,-140.188,-34.750,-23.563,4.875,-7.125,-2.125,1.070,-8.030,5.650,-0.040,-0.230,-0.190,1.110,-7.790,5.840,80.188,6.563,53.000
30.826,30,-140.188,-34.750,-23.563,22.625,7.563,-0.875,0.880,-7.620,5.890,-0.220,0.110,-0.020,1.100,-7.730,5.920,80.313,6.438,52.500
30.869,30,-140.562,-35.500,-24.750,-2.750,3.875,0.188,1.160,-7.900,6.130,0.060,-0.200,0.150,1.090,-7.690,5.970,80.625,6.375,52.125
30.895,30,-139.375,-35.063,-24.500,-10.375,1.188,8.563,1.040,-8.330,5.510,-0.030,-0.610,-0.440,1.070,-7.710,5.950,80.500,6.250,52.313
30.916,30,-139.375,-35.063,-24.500,-0.250,-9.250,19.563,1.040,-7.690,5.180,0.060,-0.340,-0.340,1.020,-7.720,5.950,79.875,5.938,52.313
30.941,30,-139.375,-35.063,-24.500,32.125,1.750,12.563,1.100,-5.740,6.520,0.110,1.930,0.500,0.990,-7.670,6.020,79.563,5.750,51.813
30.991,30,-139.750,-34.688,-23.688,28.938,17.875,-18.000,1.120,-8.270,6.000,0.130,-0.770,-0.230,0.980,-7.500,6.230,80.625,5.750,50.188
31.012,30,-139.375,-36.063,-24.000,19.000,9.438,-8.500,1.030,-8.370,5.690,0.030,-0.910,-0.600,0.990,-7.450,6.290,80.938,5.813,49.563
31.036,30,-139.375,-36.063,-24.000,19.313,-1.313,-0.563,1.000,-6.450,6.570,0.000,0.950,0.220,0.990,-7.400,6.340,81.000,5.813,49.250
31.057,30,-139.750,-36.063,-25.375,11.688,2.438,-5.313,0.700,-7.510,6.090,-0.040,-0.120,-0.110,1.000,-7.360,6.390,81.062,5.875,49.000
31.102,30,-139.375,-37.563,-25.375,11.500,-3.000,2.750,0.800,-7.900,6.240,-0.210,-0.590,-0.200,1.010,-7.310,6.450,81.000,5.938,48.563
31.126,30,-139.375,-37.563,-25.375,14.688,-3.875,9.875,1.340,-7.460,6.250,0.150,-0.020,-0.450,1.000,-7.260,6.500,80.688,5.813,48.125
31.15,30,-139.375,-36.000,-25.688,19.438,-0.563,3.000,0.850,-6.850,6.020,-0.220,0.100,-0.360,1.000,-7.220,6.550,80.625,5.875,47.750
31.192,30,-139.375,-36.000,-25.688,13.687,-4.625,5.438,0.920,-7.080,6.450,-0.110,0.070,-0.160,1.030,-7.160,6.610,80.437,6.063,47.250
31.213,30,-139.375,-39.000,-25.187,9.750,-3.250,13.188,1.550,-6.430,6.360,0.530,0.700,-0.270,1.010,-7.130,6.640,80.063,5.813,47.000
31.237,30,-139.375,-39.000,-25.187,11.438,-1.875,10.000,0.670,-5.830,5.020,-0.310,1.280,-1.640,0.990,-7.120,6.660,79.938,5.750,46.875
31.258,30,-139.375,-38.250,-25.375,39.688,-29.313,2.125,0.950,-7.050,7.860,-0.110,-0.050,1.080,1.070,-7.000,6.780,79.437,6.250,45.875
31.303,30,-140.562,-38.250,-25.375,33.563,-2.188,12.938,0.830,-7.070,7.360,-0.280,-0.250,0.400,1.120,-6.810,6.950,79.063,6.563,44.375
31.327,30,-140.562,-38.250,-25.375,21.875,-0.250,10.625,0.990,-6.680,7.580,-0.510,-0.070,0.740,1.080,-6.740,7.030,78.750,6.313,43.812
31.351,30,-140.188,-38.188,-25.750,9.688,10.063,0.188,0.520,-7.240,7.990,-0.470,-0.770,0.880,1.050,-6.720,7.050,78.812,6.125,43.563
31.374,30,-140.188,-38.188,-25.750,18.250,28.688,6.875,1.160,-7.240,7.180,0.180,-0.560,0.070,0.980,-6.680,7.100,78.938,5.438,43.000
31.419,30,-139.063,-39.500,-25.500,16.000,17.188,2.063,0.410,-5.430,6.650,-0.310,0.680,-0.010,0.820,-6.560,7.230,79.125,4.813,42.188
31.455,30,-139.375,-40.500,-25.875,19.375,4.500,-8.188,1.080,-6.950,7.260,0.240,-0.440,-0.010,0.840,-6.510,7.280,79.375,4.813,41.563
31.479,30,-139.375,-40.500,-25.875,26.875,14.750,8.688,0.620,-6.280,6.300,-0.310,0.940,-0.480,0.760,-6.410,7.370,79.188,4.438,41.000
31.503,30,-138.687,-40.750,-27.375,39.750,1.938,20.563,0.520,-6.310,7.670,-0.210,0.010,0.210,0.730,-6.320,7.460,78.875,4.250,40.250
31.545,30,-139.063,-41.563,-26.688,33.188,11.375,0.813,0.350,-5.990,7.670,-0.350,0.160,0.060,0.700,-6.150,7.600,78.938,4.125,38.938
31.566,30,-139.063,-41.563,-26.688,32.125,13.500,5.063,0.000,-5.190,7.570,-0.660,0.880,-0.100,0.660,-6.070,7.670,78.938,3.750,38.000
31.59,30,-139.063,-41.563,-26.688,25.063,7.125,-11.187,0.370,-6.260,7.430,-0.270,-0.260,-0.300,0.660,-5.960,7.750,79.250,3.875,37.563
31.611,30,-138.687,-43.063,-29.000,17.875,-0.938,-18.500,0.600,-6.560,7.490,-0.100,-0.640,-0.280,0.700,-5.910,7.780,79.500,4.063,37.188
31.657,30,-138.687,-43.000,-27.687,25.063,-2.188,-8.500,1.060,-5.970,7.180,0.310,-0.170,-0.680,0.740,-5.790,7.870,79.750,4.375,36.063
31.681,30,-138.687,-43.000,-27.687,31.437,0.563,-6.000,0.680,-5.200,7.540,-0.060,0.460,-0.410,0.750,-5.670,7.960,79.813,4.375,35.438
31.705,30,-138.250,-44.375,-27.750,30.812,9.625,4.938,0.190,-4.340,7.330,-0.520,1.240,-0.690,0.710,-5.580,8.020,79.688,4.188,34.813
31.729,30,-138.250,-44.375,-27.750,24.625,1.188,-13.313,0.670,-5.620,8.130,-0.050,-0.100,0.050,0.740,-5.470,8.090,80.000,4.313,34.063
31.773,30,-137.563,-45.500,-28.250,22.062,7.313,4.688,0.590,-5.600,8.090,-0.120,-0.260,-0.090,0.710,-5.340,8.180,80.125,4.188,33.125
31.799,30,-138.250,-46.063,-28.750,19.813,5.313,5.938,0.420,-5.130,7.930,-0.270,0.150,-0.280,0.690,-5.290,8.220,80.063,4.000,32.750
31.82,30,-138.250,-46.063,-28.750,17.750,0.875,1.563,0.440,-4.970,8.290,0.120,-0.710,0.050,0.680,-5.220,8.270,80.000,4.000,32.250
31.844,30,-138.250,-46.063,-28.750,11.125,-2.750,0.250,0.910,-6.070,8.230,0.220,-0.880,-0.050,0.680,-5.190,8.290,79.938,4.000,32.000
31.894,30,-138.000,-46.375,-28.688,9.500,6.875,1.438,0.620,-5.300,8.060,-0.020,-0.180,-0.270,0.650,-5.110,8.330,79.750,3.813,31.500
31.916,30,-137.563,-47.188,-29.875,12.625,4.875,3.813,0.290,-5.180,8.540,-0.330,-0.090,0.180,0.630,-5.080,8.360,79.688,3.688,31.250
31.941,30,-137.563,-47.188,-29.875,13.438,9.750,4.625,0.390,-5.360,8.030,-0.200,-0.310,-0.350,0.600,-5.040,8.380,79.625,3.375,30.875
31.982,30,-137.250,-47.750,-29.563,13.438,10.750,5.063,0.540,-4.680,7.930,0.030,0.250,-0.510,0.500,-4.940,8.450,79.500,2.938,30.313
32.006,30,-137.563,-47.375,-29.250,11.375,6.750,-0.313,0.350,-4.820,8.240,-0.140,0.080,-0.230,0.490,-4.910,8.470,79.500,2.875,30.063
32.029,30,-137.563,-47.375,-29.250,13.875,1.813,-0.688,0.310,-5.140,8.120,-0.170,-0.270,-0.370,0.480,-4.870,8.490,79.563,2.813,29.688
32.053,30,-137.563,-47.750,-29.375,13.625,-2.313,-3.563,-0.100,-4.420,8.590,-0.590,0.400,0.070,0.500,-4.810,8.520,79.625,2.938,29.438
32.094,30,-137.563,-47.750,-29.375,4.375,-15.438,4.125,0.340,-4.690,7.390,-0.190,0.080,-1.140,0.570,-4.760,8.550,79.437,3.313,29.063
32.115,30,-137.250,-49.250,-29.375,16.500,-5.750,-1.188,0.600,-3.820,9.090,0.000,0.880,0.510,0.610,-4.700,8.580,79.375,3.563,28.750
32.141,30,-137.250,-49.250,-29.375,12.938,-2.188,-9.188,0.510,-4.680,7.740,-0.100,-0.010,-0.850,0.620,-4.670,8.600,79.563,3.625,28.500
32.162,30,-137.375,-48.750,-29.188,11.063,-7.563,-8.625,0.970,-5.400,8.650,0.270,-1.120,-0.080,0.670,-4.610,8.620,79.688,3.938,28.125
32.205,30,-138.375,-48.750,-30.750,10.188,-1.438,4.375,0.500,-4.520,8.780,-0.370,0.040,0.070,0.670,-4.550,8.650,79.563,3.938,27.750
32.226,30,-138.375,-48.750,-30.750,6.313,2.813,-2.813,0.820,-4.670,7.960,0.140,-0.130,-0.700,0.670,-4.530,8.660,79.625,3.938,27.625
32.251,30,-138.063,-48.750,-29.563,6.563,-5.438,-1.000,0.490,-4.970,8.600,-0.190,-0.450,-0.070,0.680,-4.510,8.670,79.625,4.000,27.500
32.272,30,-138.063,-48.750,-29.563,7.813,-7.750,3.938,0.380,-4.530,8.780,-0.210,-0.150,0.110,0.700,-4.480,8.690,79.437,4.125,27.250
32.315,30,-138.063,-49.375,-30.250,7.438,-2.500,2.625,0.370,-4.430,8.720,-0.330,0.000,0.010,0.700,-4.440,8.710,79.250,4.125,27.000
32.344,30,-138.063,-49.375,-30.250,7.875,3.313,2.125,0.360,-4.260,8.730,-0.160,0.120,-0.120,0.680,-4.400,8.730,79.250,4.000,26.750
32.366,30,-138.000,-49.063,-28.688,7.250,0.875,-0.313,0.650,-4.580,8.250,-0.020,-0.190,-0.480,0.680,-4.380,8.740,79.250,3.938,26.625
32.392,30,-138.000,-49.063,-28.688,8.813,-2.313,2.938,0.480,-4.720,8.770,-0.200,-0.360,0.020,0.680,-4.360,8.750,79.188,4.000,26.437
32.433,30,-137.563,-49.375,-28.688,9.750,-1.313,4.500,0.470,-4.450,8.440,-0.190,-0.140,-0.340,0.670,-4.290,8.790,78.875,3.875,26.000
32.456,30,-138.000,-50.188,-29.500,7.813,-5.938,3.875,0.370,-4.470,8.880,-0.160,-0.130,-0.070,0.670,-4.270,8.790,78.750,3.938,25.875
32.477,30,-138.000,-50.188,-29.500,9.938,-5.688,4.750,0.610,-4.080,8.670,-0.060,0.150,-0.130,0.680,-4.240,8.810,78.625,4.000,25.688
32.503,30,-137.563,-51.188,-29.500,7.938,-2.313,1.188,0.430,-4.360,8.790,-0.260,-0.130,-0.030,0.690,-4.220,8.820,78.500,4.063,25.438
32.544,30,-137.563,-51.188,-29.500,9.375,-0.375,4.000,0.590,-3.880,8.550,-0.080,0.280,-0.290,0.680,-4.170,8.840,78.375,4.000,25.125
32.565,30,-138.375,-49.000,-28.000,10.375,0.375,0.500,0.640,-4.110,8.580,-0.030,0.000,-0.290,0.680,-4.120,8.870,78.375,3.938,24.875
32.59,30,-138.375,-49.000,-28.000,13.875,-1.875,-0.438,0.500,-4.300,8.560,-0.170,-0.210,-0.320,0.680,-4.080,8.880,78.375,3.938,24.625
32.612,30,-138.000,-50.500,-28.000,15.250,-3.375,3.500,0.670,-3.740,8.710,-0.010,0.290,-0.190,0.680,-4.040,8.900,78.250,4.000,24.375
32.654,30,-137.563,-51.188,-27.687,14.063,-2.563,-2.188,0.600,-4.230,8.760,-0.090,-0.280,-0.170,0.700,-3.950,8.940,78.313,4.125,23.688
32.675,30,-137.563,-51.188,-27.687,13.563,-4.250,1.750,0.620,-4.020,9.240,-0.050,0.010,-0.130,0.710,-3.890,8.970,78.187,4.125,23.438
32.701,30,-138.250,-51.875,-29.250,11.438,0.250,4.375,0.630,-3.990,8.480,-0.070,-0.130,-0.500,0.700,-3.860,8.980,78.125,4.125,23.250
32.742,30,-138.250,-51.875,-29.250,17.000,-1.313,3.938,0.540,-3.560,8.810,-0.160,0.210,-0.200,0.710,-3.780,9.010,77.938,4.125,22.750
